idx,imu_Timestamp[sec],mag_Timestamp[sec],accX[m/s^2],accY[m/s^2],accZ[m/s^2],gyroX[deg/s],gyroY[deg/s],gyroZ[deg/s],magX[uT],magY[uT],magZ[uT],orX[deg],orY[deg],orZ[deg],moving, 
892,2.258921000,2.245931000,-0.414455831,0.026473837,9.752616882,0.591100991,0.729460061,0.922581732,-1.000000000,-4.250000000,-4.625000000,-89.500953674,-0.014384997,-0.725094736,1.000000000,
894,2.263948000,2.245931000,-0.209456429,-0.104566440,9.538352966,-0.877758801,-0.039752789,0.622204900,-1.000000000,-4.250000000,-4.625000000,-89.507583618,-0.010400141,-0.735877156,1.000000000,
896,2.268911000,2.265892000,0.083014123,-0.094932660,9.555032730,-1.402797341,0.043124583,-0.950932264,-1.000000000,-4.250000000,-4.625000000,-89.520690918,-0.013500042,-0.742445230,1.000000000,
898,2.273915000,2.265892000,0.086893886,0.114702925,9.829125404,-0.835822582,-0.019306418,-1.044158459,-1.000000000,-4.250000000,-4.625000000,-89.533554077,-0.019605627,-0.743625879,1.000000000,
900,2.278905000,2.265892000,-0.170386821,0.343335599,10.117463112,0.046914015,-0.319575131,0.464432597,-1.000000000,-4.250000000,-4.625000000,-89.539642334,-0.018856371,-0.735709071,1.000000000,
902,2.283933000,2.265892000,-0.265721202,0.417230666,10.222161293,1.426776886,0.417967469,0.824385166,-1.000000000,-4.250000000,-4.625000000,-89.526298523,-0.014459616,-0.737667859,1.000000000,
903,2.286912000,2.265892000,-0.194182545,0.357687593,10.155437469,1.513027668,0.670501649,0.470396906,-1.000000000,-4.250000000,-4.625000000,-89.518569946,-0.013299006,-0.739544094,1.000000000,
905,2.291929000,2.285909000,0.053190805,0.112371884,9.805192947,0.280475229,-0.282612324,-0.042249698,-0.937500000,-4.250000000,-4.625000000,-89.507270813,-0.012933751,-0.740608156,1.000000000,
907,2.296932000,2.285909000,0.174046412,-0.061490253,9.550215721,-0.651135147,-0.554580092,-0.457635850,-0.937500000,-4.250000000,-4.625000000,-89.502449036,-0.014968065,-0.733134329,1.000000000,
908,2.299937000,2.285909000,0.130959421,-0.054358538,9.559747696,-0.533821762,-0.179068998,-0.720777214,-0.937500000,-4.250000000,-4.625000000,-89.500747681,-0.016686490,-0.729082465,1.000000000,
910,2.303921000,2.285909000,-0.105494373,0.052762069,9.709874153,0.309806049,0.526552737,-0.209493324,-0.937500000,-4.250000000,-4.625000000,-89.494506836,-0.018993523,-0.723367453,1.000000000,
911,2.306925000,2.285909000,-0.213096678,0.088461310,9.755150795,0.437709510,0.330054343,0.590491176,-0.937500000,-4.250000000,-4.625000000,-89.490364075,-0.017722007,-0.720146477,1.000000000,
913,2.311918000,2.305902000,-0.232352823,0.050436296,9.750133514,0.351761520,-0.233820349,1.058982015,-1.000000000,-4.250000000,-4.562500000,-89.481201172,-0.012397782,-0.713707805,1.000000000,
915,2.316925000,2.305902000,-0.033847373,-0.078200877,9.673877716,-0.052865140,0.158794105,-0.480665237,-1.000000000,-4.250000000,-4.562500000,-89.474609375,-0.012518424,-0.707648337,1.000000000,
917,2.321915000,2.305902000,0.016152218,-0.154616565,9.597976685,-1.194724202,-0.515816748,-0.989720225,-1.000000000,-4.250000000,-4.562500000,-89.479904175,-0.017673802,-0.695263386,1.000000000,
919,2.326918000,2.305902000,-0.208382756,-0.030794226,9.736188889,-1.276235104,-0.431723952,-0.244134650,-1.000000000,-4.250000000,-4.562500000,-89.492515564,-0.019536326,-0.685005963,1.000000000,
921,2.331910000,2.326892000,-0.427046061,0.219354928,10.081565857,0.165367469,0.894312084,0.213093072,-1.000000000,-4.250000000,-4.625000000,-89.500106812,-0.019107692,-0.690140605,1.000000000,
922,2.334914000,2.326892000,-0.443156570,0.297959000,10.205481529,0.676468253,0.920812607,0.478504062,-1.000000000,-4.250000000,-4.625000000,-89.498016357,-0.017987488,-0.697503269,1.000000000,
924,2.339904000,2.326892000,-0.261222392,0.276588619,10.167352676,0.768692791,-0.233025506,0.878265738,-1.000000000,-4.250000000,-4.625000000,-89.490219116,-0.014006317,-0.707343936,1.000000000,
926,2.344904000,2.326892000,0.015545979,0.128898129,9.929258347,0.487762958,-0.654052079,-0.197362289,-1.000000000,-4.250000000,-4.625000000,-89.482467651,-0.012969346,-0.713149130,1.000000000,
928,2.349931000,2.346912000,0.062389582,0.033661325,9.726707458,0.239853650,-0.145767614,-1.081549287,-1.000000000,-4.250000000,-4.625000000,-89.474090576,-0.017966062,-0.717963457,1.000000000,
930,2.354901000,2.346912000,-0.154010758,0.036191847,9.607255936,-0.014187890,-0.069110960,0.349165559,-1.000000000,-4.187500000,-4.625000000,-89.467025757,-0.018044712,-0.722309053,1.000000000,
932,2.359896000,2.346912000,-0.256947905,0.086212903,9.628703117,0.202732205,0.294729948,1.007813692,-1.000000000,-4.187500000,-4.625000000,-89.459449768,-0.012917389,-0.729695499,1.000000000,
934,2.364873000,2.346912000,-0.057818998,0.074266657,9.662215233,0.612459898,0.645931184,0.117885917,-1.000000000,-4.187500000,-4.625000000,-89.449813843,-0.010724558,-0.740114927,1.000000000,
936,2.369866000,2.366847000,0.174174368,-0.035276547,9.574045181,-0.410128742,-0.588407159,-0.280881107,-1.000000000,-4.187500000,-4.625000000,-89.443595886,-0.011585597,-0.735859513,1.000000000,
938,2.374864000,2.366847000,0.169431239,-0.063920327,9.581245422,-0.981824994,-0.769327879,-0.607642174,-1.000000000,-4.250000000,-4.562500000,-89.447814941,-0.014454943,-0.720491052,1.000000000,
939,2.377864000,2.366847000,0.069274560,-0.011556205,9.674180984,-0.862066269,-0.085642211,-0.687882721,-1.000000000,-4.250000000,-4.562500000,-89.450416565,-0.016286626,-0.714725673,1.000000000,
941,2.382856000,2.366847000,-0.197933137,0.131371915,9.907509804,-0.524359167,0.836303532,0.037436839,-1.000000000,-4.250000000,-4.562500000,-89.453971863,-0.017391920,-0.706992030,1.000000000,
943,2.387862000,2.366847000,-0.290529042,0.205156982,10.069551468,-0.066505864,0.171215147,1.007531643,-1.000000000,-4.250000000,-4.562500000,-89.454254150,-0.013212568,-0.698170722,1.000000000,
945,2.392877000,2.386865000,-0.110303931,0.193174243,10.153104782,0.519978225,-0.065908618,-0.040485185,-1.062500000,-4.250000000,-4.625000000,-89.447540283,-0.011742316,-0.688602328,1.000000000,
947,2.397884000,2.386865000,0.018598739,0.116978578,10.057786942,0.540429711,-0.334985256,-0.877632856,-1.062500000,-4.250000000,-4.625000000,-89.439735413,-0.015421035,-0.678798497,1.000000000,
949,2.402879000,2.386865000,-0.145391434,0.052654535,9.867150307,0.069746241,-0.591396332,-0.134749666,-1.062500000,-4.250000000,-4.625000000,-89.434570312,-0.017011786,-0.665367246,1.000000000,
951,2.407872000,2.386865000,-0.368591934,0.081220746,9.807576180,0.285098076,0.365145773,0.294240505,-1.062500000,-4.250000000,-4.625000000,-89.426864624,-0.016124118,-0.664212048,1.000000000,
952,2.410897000,2.407878000,-0.397363514,0.097902097,9.805192947,0.646399200,0.952186763,0.449377894,-1.062500000,-4.250000000,-4.625000000,-89.423530579,-0.014980488,-0.671563089,1.000000000,
954,2.415876000,2.407878000,-0.254041880,0.045575146,9.719355583,0.528360486,0.390916049,0.680109978,-0.937500000,-4.250000000,-4.562500000,-89.417991638,-0.011356243,-0.685761273,1.000000000,
956,2.420868000,2.407878000,0.011209120,-0.056770530,9.576378822,0.071269520,-0.966347575,0.068212390,-0.937500000,-4.250000000,-4.562500000,-89.417060852,-0.009735947,-0.693447292,1.000000000,
958,2.425876000,2.407878000,0.085207134,-0.082963295,9.519237518,-0.149114817,-0.393205702,-1.053246379,-0.937500000,-4.250000000,-4.562500000,-89.424125671,-0.014227879,-0.695623696,1.000000000,
960,2.430861000,2.427842000,-0.140018836,-0.021057921,9.528769493,-0.916926980,0.033219930,-0.239552900,-0.937500000,-4.250000000,-4.562500000,-89.435462952,-0.016821435,-0.695847154,1.000000000,
962,2.435854000,2.427842000,-0.326143563,0.105180018,9.681228638,-0.964805126,0.486122191,0.808631361,-1.000000000,-4.250000000,-4.562500000,-89.447723389,-0.013619539,-0.702075720,1.000000000,
964,2.440852000,2.427842000,-0.183236212,0.226667017,9.962416649,-0.073337853,0.769986749,0.272149056,-1.000000000,-4.250000000,-4.562500000,-89.453430176,-0.011373897,-0.714820743,1.000000000,
966,2.445904000,2.427842000,0.083571151,0.236116678,10.100831985,0.278773844,-0.311751992,-0.221131161,-1.000000000,-4.250000000,-4.562500000,-89.449272156,-0.011911709,-0.724599719,1.000000000,
968,2.450845000,2.447826000,0.128798783,0.186095804,10.043641090,0.127207279,-1.179753780,-0.292118698,-1.000000000,-4.250000000,-4.562500000,-89.443222046,-0.013352445,-0.710392892,1.000000000,
970,2.455851000,2.447826000,-0.070609227,0.159972116,9.962368011,0.366433114,0.094660118,-0.424273789,-1.000000000,-4.250000000,-4.500000000,-89.437240601,-0.015579596,-0.699801624,1.000000000,
971,2.458850000,2.447826000,-0.188284069,0.145650089,9.917092323,0.431003422,0.648788393,-0.059679005,-1.000000000,-4.250000000,-4.500000000,-89.433708191,-0.015657445,-0.696717262,1.000000000,
973,2.463853000,2.447826000,-0.279891014,0.086067483,9.817008018,0.023242507,0.730709434,0.925718606,-1.000000000,-4.250000000,-4.500000000,-89.426338196,-0.012004701,-0.695102870,1.000000000,
975,2.468854000,2.447826000,-0.088306546,0.021775406,9.790794373,0.195147738,-0.069716275,0.348039031,-1.000000000,-4.250000000,-4.500000000,-89.417930603,-0.009492521,-0.692038357,1.000000000,
977,2.473847000,2.467825000,0.093819641,-0.025843801,9.788412094,0.629341900,-0.489813775,-0.910115778,-1.000000000,-4.250000000,-4.500000000,-89.411682129,-0.012336938,-0.680013478,1.000000000,
979,2.478846000,2.467825000,-0.031428799,-0.063969724,9.671646118,-0.081380613,-0.900111139,-0.227620274,-1.000000000,-4.250000000,-4.500000000,-89.413177490,-0.015111427,-0.665707171,1.000000000,
981,2.483823000,2.467825000,-0.300340801,-0.054426484,9.583375931,-0.283366263,0.087202534,0.323066384,-1.000000000,-4.250000000,-4.500000000,-89.420890808,-0.013932663,-0.657749057,1.000000000,
983,2.488807000,2.467825000,-0.379107505,0.012271211,9.642950058,-0.521847725,1.237701654,0.221634790,-1.000000000,-4.250000000,-4.500000000,-89.430480957,-0.012789865,-0.668102980,1.000000000,
985,2.493830000,2.487787000,-0.201015115,0.074075416,9.767217636,-0.761812806,0.368433356,0.210790679,-1.000000000,-4.250000000,-4.625000000,-89.439483643,-0.011638074,-0.680025756,1.000000000,
987,2.498833000,2.487787000,0.005998101,0.152733818,9.936408043,-0.141461387,-0.775232673,-0.314680785,-1.000000000,-4.250000000,-4.625000000,-89.446517944,-0.012685236,-0.685167134,1.000000000,
989,2.503826000,2.487787000,-0.019706720,0.238586128,10.067268372,0.540933311,-0.553262413,-0.791477501,-1.000000000,-4.250000000,-4.625000000,-89.449172974,-0.016492078,-0.691341102,1.000000000,
990,2.506826000,2.487787000,-0.132383689,0.250471115,10.060119629,0.667268515,-0.157059595,-0.221150905,-1.000000000,-4.250000000,-4.625000000,-89.445632935,-0.016883152,-0.695845664,1.000000000,
992,2.511823000,2.508804000,-0.339268893,0.202795073,9.914758682,0.231047645,0.203176886,0.857618928,-1.000000000,-4.250000000,-4.625000000,-89.438934326,-0.014301793,-0.705398798,1.000000000,
994,2.516798000,2.508804000,-0.244094908,0.126655534,9.790743828,0.200202927,0.888539732,0.688902676,-1.000000000,-4.312500000,-4.562500000,-89.434196472,-0.009781362,-0.719210625,1.000000000,
996,2.521790000,2.508804000,0.069560856,0.045734350,9.735936165,0.189388961,0.185724780,-0.213735700,-1.000000000,-4.312500000,-4.562500000,-89.428535461,-0.009494627,-0.730016053,1.000000000,
998,2.526794000,2.508804000,0.215595409,-0.009084140,9.702674866,0.036892693,-0.961102486,-0.348137856,-1.000000000,-4.312500000,-4.562500000,-89.422935486,-0.011587851,-0.720271289,1.000000000,
1000,2.531814000,2.528795000,0.064688556,0.005158604,9.716973305,0.098533943,-0.621292174,-0.224627480,-1.000000000,-4.312500000,-4.562500000,-89.422271729,-0.012834656,-0.704594374,1.000000000,
1002,2.536811000,2.528795000,-0.172573805,0.016945451,9.712307930,0.223633632,0.647122145,0.090287969,-1.000000000,-4.250000000,-4.562500000,-89.421630859,-0.013111139,-0.694801271,1.000000000,
1003,2.539810000,2.528795000,-0.230244935,-0.002133331,9.683712959,-0.279412627,0.829026699,0.541977584,-1.000000000,-4.250000000,-4.562500000,-89.422882080,-0.011502931,-0.692007899,1.000000000,
1005,2.544831000,2.528795000,-0.139299840,-0.028240999,9.666880608,-0.790872276,0.180951402,0.356966138,-1.000000000,-4.250000000,-4.562500000,-89.429367065,-0.009493837,-0.682930410,1.000000000,
1007,2.549802000,2.528795000,0.048425652,0.014657986,9.814623833,-0.624105096,-0.240351930,-0.750957847,-1.000000000,-4.250000000,-4.562500000,-89.436462402,-0.011840681,-0.671917081,1.000000000,
1009,2.554801000,2.548784000,0.006282020,0.114602096,9.993498802,-0.085872918,-0.490636945,-0.727610230,-1.000000000,-4.187500000,-4.562500000,-89.440811157,-0.016070632,-0.659483016,1.000000000,
1011,2.559800000,2.548784000,-0.247382820,0.197920948,10.062603951,0.194681734,-0.317978144,0.314836293,-1.000000000,-4.187500000,-4.562500000,-89.442642212,-0.015912339,-0.646905065,1.000000000,
1013,2.564798000,2.548784000,-0.376962513,0.221759915,10.033957481,0.586725950,0.827803135,0.477698892,-1.000000000,-4.187500000,-4.562500000,-89.436882019,-0.013154930,-0.646966934,1.000000000,
1015,2.569769000,2.548784000,-0.241100490,0.143207803,9.895745277,0.404660076,0.551465213,0.266470402,-1.000000000,-4.187500000,-4.562500000,-89.430534363,-0.011524656,-0.660763681,1.000000000,
1017,2.574792000,2.568780000,-0.031083290,0.040903360,9.735986710,-0.019203363,-0.623118281,-0.045486841,-1.000000000,-4.250000000,-4.562500000,-89.426216125,-0.010967791,-0.669598103,1.000000000,
1019,2.580792000,2.568780000,0.004609264,0.024254126,9.688326836,0.333624512,-0.492796034,-0.610965908,-1.000000000,-4.250000000,-4.562500000,-89.420753479,-0.013673602,-0.675657630,1.000000000,
1021,2.584797000,2.568780000,-0.170505196,0.048076548,9.659681320,0.310029268,0.059804443,-0.097145505,-1.000000000,-4.250000000,-4.562500000,-89.415870667,-0.015037874,-0.686260998,1.000000000,
1023,2.589788000,2.568780000,-0.297971040,0.019467466,9.576277733,-0.006885031,0.264559656,0.978771031,-1.000000000,-4.250000000,-4.562500000,-89.415603638,-0.011559781,-0.698760331,1.000000000,
1025,2.594792000,2.589764000,-0.142208278,-0.025801303,9.571561813,-0.610675991,0.490545839,0.390128076,-1.000000000,-4.250000000,-4.562500000,-89.420150757,-0.008213003,-0.712121487,1.000000000,
1027,2.599781000,2.589764000,0.100395098,-0.016236391,9.674029350,-0.621770620,0.192349061,-0.596050203,-1.000000000,-4.250000000,-4.562500000,-89.429489136,-0.010309515,-0.718658924,1.000000000,
1028,2.602780000,2.589764000,0.141520604,0.009964023,9.745518684,-0.713996947,-0.177690044,-0.779338121,-1.000000000,-4.250000000,-4.562500000,-89.434310913,-0.012365257,-0.714256525,1.000000000,
1030,2.607783000,2.589764000,0.010669246,0.117106080,9.924239159,-0.349827290,-0.744642615,-0.194196105,-1.000000000,-4.250000000,-4.562500000,-89.441184998,-0.014458670,-0.700664043,1.000000000,
1032,2.612773000,2.609754000,-0.211315602,0.221837744,10.091047287,0.372565597,0.305282563,0.114320800,-1.000000000,-4.250000000,-4.562500000,-89.441917419,-0.013648775,-0.690270126,1.000000000,
1034,2.617752000,2.609754000,-0.256977111,0.217090890,10.069551468,0.319136918,0.702388823,0.655858874,-1.000000000,-4.250000000,-4.562500000,-89.434944153,-0.011465239,-0.685474038,1.000000000,
1036,2.622741000,2.609754000,-0.082782820,0.124248050,9.928955078,-0.134664893,-0.036677796,0.261007905,-1.000000000,-4.250000000,-4.562500000,-89.427520752,-0.009209695,-0.682361007,1.000000000,
1037,2.625742000,2.609754000,0.015258826,0.086158194,9.888445854,-0.051016457,-0.185435817,-0.277199686,-1.000000000,-4.250000000,-4.562500000,-89.424377441,-0.009870421,-0.678036630,1.000000000,
1039,2.630738000,2.609754000,0.048657186,0.064728178,9.859850883,0.242674246,-0.242314726,-0.755734682,-1.000000000,-4.250000000,-4.562500000,-89.419586182,-0.013339090,-0.667213023,1.000000000,
1041,2.635744000,2.629716000,-0.155259192,0.081294052,9.814724922,0.312772989,-0.378757685,0.194276035,-0.937500000,-4.250000000,-4.625000000,-89.414176941,-0.014258500,-0.655656278,1.000000000,
1043,2.640732000,2.629716000,-0.316251397,0.076513380,9.736087799,0.469425261,0.079082549,0.795068622,-0.937500000,-4.250000000,-4.625000000,-89.405448914,-0.010744688,-0.651231825,1.000000000,
1045,2.645764000,2.629716000,-0.235455602,0.002777232,9.614405632,0.194711134,0.677178264,0.209810078,-0.937500000,-4.250000000,-4.625000000,-89.400543213,-0.009205365,-0.663754582,1.000000000,
1047,2.650773000,2.629716000,-0.046728350,-0.104383260,9.502405167,-0.708053887,-0.215644732,-0.214529544,-0.937500000,-4.250000000,-4.625000000,-89.407516479,-0.009623999,-0.672243595,1.000000000,
1049,2.655759000,2.649738000,0.006454378,-0.080619901,9.583526611,-0.950467348,-0.553391218,-0.485768437,-1.000000000,-4.250000000,-4.625000000,-89.419898987,-0.011759671,-0.671335757,1.000000000,
1051,2.660724000,2.649738000,-0.145569384,0.088463634,9.836121559,-0.230735511,0.250807285,-0.389024466,-1.000000000,-4.250000000,-4.625000000,-89.430259705,-0.014445828,-0.671283364,1.000000000,
1053,2.665753000,2.649738000,-0.312409997,0.219391614,10.003030777,0.109896354,0.298585236,0.681129873,-1.000000000,-4.250000000,-4.625000000,-89.436935425,-0.012552017,-0.677703559,1.000000000,
1054,2.668753000,2.649738000,-0.312307626,0.236070782,10.022092819,0.201768935,0.078140438,0.915569663,-1.000000000,-4.250000000,-4.625000000,-89.438079834,-0.010398662,-0.683203638,1.000000000,
1056,2.673721000,2.670702000,-0.123183697,0.188475236,9.983966827,0.313054442,0.305107415,0.114712812,-1.000000000,-4.250000000,-4.625000000,-89.436912537,-0.008107658,-0.696003139,1.000000000,
1058,2.678716000,2.670702000,0.077620715,0.112402968,9.897977829,0.094495192,-0.243436262,-0.635910749,-1.062500000,-4.250000000,-4.562500000,-89.433517456,-0.010923343,-0.706013739,1.000000000,
1060,2.683718000,2.670702000,0.026960136,0.081424765,9.836021423,-0.199503243,-0.559397280,-0.132898435,-1.062500000,-4.250000000,-4.562500000,-89.430969238,-0.012369257,-0.693123043,1.000000000,
1062,2.688711000,2.670702000,-0.166972131,0.117049627,9.867100716,0.403620660,0.179470286,0.231424317,-1.062500000,-4.250000000,-4.562500000,-89.427581787,-0.011800308,-0.682034194,1.000000000,
1064,2.693714000,2.690695000,-0.212596446,0.107505545,9.850419044,0.615683317,0.517815232,0.443367809,-1.062500000,-4.250000000,-4.562500000,-89.417778015,-0.009795873,-0.679479063,1.000000000,
1066,2.698708000,2.690695000,-0.062420189,-0.009208078,9.697958946,0.165758014,-0.070226341,0.377996773,-1.000000000,-4.187500000,-4.562500000,-89.416366577,-0.007758334,-0.680081129,1.000000000,
1068,2.703713000,2.690695000,0.092819117,-0.099697419,9.597874641,-0.411841422,-0.462033063,-0.457629234,-1.000000000,-4.187500000,-4.562500000,-89.424850464,-0.008879081,-0.671088576,1.000000000,
1069,2.706710000,2.690695000,0.085656211,-0.090141162,9.604973793,-0.416848511,-0.331857532,-0.931908906,-1.000000000,-4.187500000,-4.562500000,-89.429107666,-0.011348034,-0.666956484,1.000000000,
1071,2.711700000,2.690695000,-0.105633952,0.002730675,9.685994148,-0.560392082,-0.058430430,-0.421366543,-1.000000000,-4.187500000,-4.562500000,-89.438194275,-0.014561008,-0.659814656,1.000000000,
1073,2.716695000,2.710682000,-0.311060369,0.121798351,9.812292099,-0.159098774,0.236991182,0.711435080,-1.000000000,-4.250000000,-4.562500000,-89.447158813,-0.012032676,-0.656595528,1.000000000,
1075,2.721697000,2.710682000,-0.269666135,0.186118707,9.933822632,0.136344343,0.457986861,0.355859488,-1.000000000,-4.250000000,-4.562500000,-89.454101562,-0.009557967,-0.661978424,1.000000000,
1077,2.726688000,2.710682000,-0.085132979,0.143219024,9.929158211,0.217088729,0.001581402,-0.424708307,-1.000000000,-4.250000000,-4.562500000,-89.459419250,-0.011438735,-0.670174420,1.000000000,
1079,2.731687000,2.710682000,-0.018451434,0.093218602,9.850521088,-0.259557664,-0.745543957,-0.164872944,-1.000000000,-4.250000000,-4.562500000,-89.467788696,-0.012323789,-0.671617091,1.000000000,
1081,2.736720000,2.730675000,-0.138210952,0.133799106,9.871765137,0.217149645,0.063713975,-0.394163698,-1.000000000,-4.250000000,-4.562500000,-89.475006104,-0.014045522,-0.673910141,1.000000000,
1083,2.741689000,2.730675000,-0.289130598,0.169502303,9.883680344,0.586622596,0.548029006,0.533181667,-1.000000000,-4.250000000,-4.562500000,-89.476348877,-0.012831751,-0.686305821,1.000000000,
1085,2.746681000,2.730675000,-0.239240170,0.107526876,9.797994614,0.349922955,0.172591433,0.797021568,-1.000000000,-4.250000000,-4.562500000,-89.473968506,-0.008839856,-0.698519945,1.000000000,
1086,2.749695000,2.730675000,-0.129254118,0.052755188,9.750334740,0.435866088,0.052285742,0.467510551,-1.000000000,-4.250000000,-4.562500000,-89.473007202,-0.007867426,-0.704667389,1.000000000,
1088,2.754686000,2.751667000,0.088359892,-0.054408900,9.662164688,0.155952141,-0.121112265,-0.515433967,-1.000000000,-4.250000000,-4.562500000,-89.476356506,-0.009393089,-0.711832047,1.000000000,
1090,2.759680000,2.751667000,0.066434897,-0.087709554,9.600107193,-0.562006295,-0.336462706,-0.514617503,-1.000000000,-4.250000000,-4.625000000,-89.485435486,-0.011840708,-0.704334021,1.000000000,
1092,2.764678000,2.751667000,-0.124855250,-0.013912413,9.681128502,-0.675174177,-0.156963646,0.053944495,-1.000000000,-4.250000000,-4.625000000,-89.496215820,-0.012073255,-0.697911024,1.000000000,
1094,2.769696000,2.751667000,-0.217301160,0.107469663,9.864767075,0.017547449,0.861675858,0.362249911,-1.000000000,-4.250000000,-4.625000000,-89.504318237,-0.010753701,-0.696529388,1.000000000,
1096,2.774669000,2.771650000,-0.116235942,0.150379434,9.941021919,-0.014346129,0.055467118,0.291485488,-1.000000000,-4.250000000,-4.625000000,-89.512031555,-0.009432465,-0.694860995,1.000000000,
1098,2.779667000,2.771650000,0.025111422,0.131386012,9.933822632,-0.109370619,-0.777836680,-0.076921970,-1.000000000,-4.250000000,-4.562500000,-89.519592285,-0.009115594,-0.685509384,1.000000000,
1100,2.784664000,2.771650000,0.001248132,0.138519078,9.952886581,0.032703064,-0.209879413,-0.843357682,-1.000000000,-4.250000000,-4.562500000,-89.524658203,-0.012586296,-0.674229264,1.000000000,
1102,2.789664000,2.771650000,-0.192873687,0.159907594,9.952886581,0.221705467,0.182854712,-0.005599922,-1.000000000,-4.250000000,-4.562500000,-89.527275085,-0.014034983,-0.664848387,1.000000000,
1104,2.794658000,2.791639000,-0.308139145,0.162275434,9.909993172,0.261318713,0.047170460,0.914759696,-1.000000000,-4.250000000,-4.562500000,-89.528961182,-0.010496574,-0.665501952,1.000000000,
1105,2.797667000,2.791639000,-0.272381425,0.143259153,9.876581192,0.587576210,0.298131287,0.648691177,-1.000000000,-4.187500000,-4.562500000,-89.527000427,-0.008881350,-0.671671391,1.000000000,
1107,2.802664000,2.791639000,-0.076464489,0.059944663,9.764582634,0.517972469,0.185203731,-0.245269194,-1.000000000,-4.187500000,-4.562500000,-89.522811890,-0.008867553,-0.684655726,1.000000000,
1109,2.807660000,2.791639000,0.018588379,-0.042531576,9.607458115,-0.260146022,-0.713765740,-0.223935515,-1.000000000,-4.187500000,-4.562500000,-89.529304504,-0.010608416,-0.685202360,1.000000000,
1111,2.812654000,2.791639000,-0.103815623,-0.049709342,9.574096680,-0.348448843,-0.279742062,-0.157788873,-1.000000000,-4.187500000,-4.562500000,-89.538711548,-0.011651069,-0.680025518,1.000000000,
1113,2.817655000,2.811633000,-0.278337836,0.024192533,9.662064552,-0.077037342,0.587659121,-0.028040668,-1.000000000,-4.312500000,-4.562500000,-89.547378540,-0.012204067,-0.682887316,1.000000000,
1115,2.822655000,2.811633000,-0.285105288,0.069446050,9.740702629,-0.308642864,0.486242890,0.685977101,-1.000000000,-4.312500000,-4.562500000,-89.554550171,-0.009444788,-0.693169177,1.000000000,
1117,2.827680000,2.811633000,-0.090490356,0.083646253,9.821974754,-0.286599308,-0.251168758,0.020850074,-1.000000000,-4.312500000,-4.562500000,-89.561767578,-0.007920705,-0.701326609,1.000000000,
1119,2.832641000,2.811633000,0.056096837,0.090808868,9.895847321,-0.354287267,-0.179708868,-0.721718371,-1.000000000,-4.312500000,-4.562500000,-89.569946289,-0.010931933,-0.706013620,1.000000000,
1120,2.835641000,2.832622000,0.037026688,0.097943671,9.914910316,-0.146370098,-0.396373898,-0.815195501,-1.000000000,-4.312500000,-4.562500000,-89.574287415,-0.013206237,-0.704865217,1.000000000,
1122,2.840659000,2.832622000,-0.133019939,0.140934631,9.947968483,-0.254795283,-0.315639257,0.257687151,-1.000000000,-4.250000000,-4.562500000,-89.583396912,-0.013393987,-0.699846864,1.000000000,
1124,2.845665000,2.832622000,-0.247760713,0.193315998,10.002778053,0.496266931,0.580127239,0.474589676,-1.000000000,-4.250000000,-4.562500000,-89.584747314,-0.010733365,-0.706570804,1.000000000,
1126,2.850660000,2.832622000,-0.159269392,0.164707184,9.964751244,0.613029540,0.520877719,0.205338374,-1.000000000,-4.250000000,-4.562500000,-89.575370789,-0.008805043,-0.717043459,1.000000000,
1128,2.855639000,2.852620000,0.017334286,0.059942104,9.826539040,0.250943452,-0.531751335,0.043608818,-1.000000000,-4.250000000,-4.562500000,-89.566062927,-0.008725211,-0.718135118,1.000000000,
1130,2.860627000,2.852620000,0.062314000,-0.009224079,9.714741707,0.304684818,-0.524926722,-0.551654041,-1.000000000,-4.250000000,-4.625000000,-89.562072754,-0.010637597,-0.704630971,1.000000000,
1132,2.865628000,2.852620000,-0.098626994,-0.002088675,9.645635605,0.068784989,0.062801853,-0.333735049,-1.000000000,-4.250000000,-4.625000000,-89.562217712,-0.012887935,-0.692831218,1.000000000,
1134,2.870635000,2.852620000,-0.261791021,0.017095227,9.621502876,-0.309897959,0.176695943,0.622058988,-1.000000000,-4.250000000,-4.625000000,-89.567497253,-0.010850104,-0.684627175,1.000000000,
1136,2.875652000,2.872633000,-0.211232781,0.036162935,9.664396286,-0.253539145,0.429301500,0.268234611,-1.000000000,-4.250000000,-4.625000000,-89.576797485,-0.008834660,-0.688077211,1.000000000,
1138,2.880644000,2.872633000,-0.047748867,0.057477728,9.748103142,-0.349972129,0.095209315,-0.360750914,-1.062500000,-4.250000000,-4.562500000,-89.586723328,-0.009958314,-0.691466093,1.000000000,
1139,2.883645000,2.872633000,-0.011595633,0.069390036,9.786231041,-0.471711606,-0.430693567,-0.486570150,-1.062500000,-4.250000000,-4.562500000,-89.591430664,-0.011198716,-0.688042760,1.000000000,
1141,2.888620000,2.872633000,-0.092714593,0.114745140,9.864616394,-0.051056184,-0.589684486,-0.223410800,-1.062500000,-4.250000000,-4.562500000,-89.597030640,-0.012416491,-0.674812555,1.000000000,
1143,2.893641000,2.872633000,-0.260064721,0.164710388,9.940871239,0.222589090,0.244036317,0.084489368,-1.062500000,-4.250000000,-4.562500000,-89.593734741,-0.012404537,-0.674522817,1.000000000,
1145,2.898636000,2.892625000,-0.303180844,0.167003274,9.938638687,0.197017238,0.550116777,0.416373342,-0.937500000,-4.250000000,-4.562500000,-89.588851929,-0.010918309,-0.687193632,1.000000000,
1147,2.903644000,2.892625000,-0.138086557,0.124174744,9.888597488,-0.014339825,-0.131137639,0.318599641,-0.937500000,-4.250000000,-4.562500000,-89.585075378,-0.008423287,-0.697123051,1.000000000,
1149,2.908631000,2.892625000,0.048704784,0.078955650,9.862384796,0.217004001,-0.184917450,-0.397615492,-0.937500000,-4.250000000,-4.562500000,-89.578308105,-0.009632069,-0.704367697,1.000000000,
1151,2.913629000,2.892625000,0.017293498,0.045591641,9.814724922,0.276369452,-0.433373600,-0.401459247,-0.937500000,-4.250000000,-4.562500000,-89.569366455,-0.011923224,-0.699314117,1.000000000,
1152,2.916641000,2.913622000,-0.073980719,0.033659328,9.776597023,0.279893219,-0.437438697,-0.074198097,-0.937500000,-4.250000000,-4.562500000,-89.565345764,-0.012291589,-0.694816291,1.000000000,
1154,2.921632000,2.913622000,-0.220466718,0.035998527,9.719457626,0.137872681,0.114126511,0.529573977,-1.062500000,-4.312500000,-4.562500000,-89.557403564,-0.009498310,-0.691472590,1.000000000,
1156,2.926634000,2.913622000,-0.163102701,0.009808549,9.690861702,0.075990558,0.583183110,0.268735021,-1.062500000,-4.312500000,-4.562500000,-89.551956177,-0.007555665,-0.702724278,1.000000000,
1158,2.931623000,2.913622000,0.014077961,-0.035386886,9.662215233,-0.706388414,-0.341967136,-0.067468412,-1.062500000,-4.312500000,-4.562500000,-89.561111450,-0.008168987,-0.702717423,1.000000000,
1160,2.936619000,2.933600000,0.069506086,0.002748874,9.719406128,-0.501831710,-0.648054361,-0.459774137,-1.062500000,-4.312500000,-4.562500000,-89.568565369,-0.009873542,-0.690334439,1.000000000,
1162,2.941619000,2.933600000,-0.080810942,0.117093630,9.845652580,-0.112703912,-0.089800581,-0.483767688,-1.000000000,-4.250000000,-4.625000000,-89.572776794,-0.012739652,-0.679142237,1.000000000,
1164,2.946621000,2.933600000,-0.269806892,0.188518524,9.907610893,0.017586323,0.177441210,0.471564174,-1.000000000,-4.250000000,-4.625000000,-89.573623657,-0.011843821,-0.668998539,1.000000000,
1166,2.951615000,2.933600000,-0.267409146,0.179006338,9.909942627,0.047008410,0.333410919,0.414074153,-1.000000000,-4.250000000,-4.625000000,-89.566261292,-0.008783964,-0.673418403,1.000000000,
1168,2.956608000,2.953589000,-0.099700719,0.136154801,9.900410652,0.159541875,-0.031953752,-0.186875761,-1.000000000,-4.250000000,-4.625000000,-89.558593750,-0.008314581,-0.680074513,1.000000000,
1169,2.959615000,2.953589000,-0.035097037,0.112321816,9.879014969,0.154618442,-0.150673166,-0.634877503,-1.000000000,-4.250000000,-4.562500000,-89.554420471,-0.009971769,-0.682063460,1.000000000,
1171,2.964609000,2.953589000,-0.059382599,0.088504814,9.819440842,0.248524070,-0.497861773,-0.193938479,-1.000000000,-4.250000000,-4.562500000,-89.545158386,-0.011674925,-0.680600464,1.000000000,
1173,2.969611000,2.953589000,-0.205753431,0.086062714,9.783746719,0.402704626,-0.037170984,0.168867305,-1.000000000,-4.250000000,-4.562500000,-89.535461426,-0.010726878,-0.681765020,1.000000000,
1175,2.974609000,2.953589000,-0.263629317,0.045547340,9.717023849,0.465993613,0.518435478,0.414458066,-1.000000000,-4.250000000,-4.562500000,-89.528236389,-0.009015121,-0.692610025,1.000000000,
1177,2.979606000,2.973558000,-0.146783859,-0.030595636,9.612071991,-0.402857214,0.025197605,0.322886050,-1.000000000,-4.250000000,-4.562500000,-89.527931213,-0.007088966,-0.704953253,1.000000000,
1179,2.984571000,2.973558000,0.009069681,-0.052006498,9.626369476,-0.501170039,-0.337819904,-0.425671130,-1.000000000,-4.250000000,-4.562500000,-89.536201477,-0.008400712,-0.711294532,1.000000000,
1181,2.989597000,2.973558000,0.005091943,0.021743460,9.771883011,-0.324054837,-0.304570228,-0.664159536,-1.000000000,-4.250000000,-4.562500000,-89.546012878,-0.012122350,-0.707931697,1.000000000,
1183,2.994592000,2.973558000,-0.159618467,0.116985343,9.893414497,-0.076759011,-0.034657322,0.052508246,-1.000000000,-4.250000000,-4.562500000,-89.554252625,-0.012812456,-0.704594791,1.000000000,
1185,2.999577000,2.993547000,-0.243229523,0.157459155,9.943454742,0.137546062,0.301100791,0.472708821,-1.000000000,-4.250000000,-4.562500000,-89.561264038,-0.010551074,-0.708233178,1.000000000,
1187,3.004571000,2.993547000,-0.125900179,0.126516625,9.924392700,0.073859163,0.461243629,0.088470995,-1.000000000,-4.250000000,-4.562500000,-89.563743591,-0.009460588,-0.721388221,1.000000000,
1189,3.009565000,2.993547000,0.029533461,0.083741672,9.864717484,-0.200876832,-0.340117455,-0.308285505,-1.000000000,-4.250000000,-4.562500000,-89.566612244,-0.010600409,-0.719742954,1.000000000,
1191,3.014550000,2.993547000,0.031968407,0.112350427,9.871865273,-0.051946122,-0.464261413,-0.340614289,-1.000000000,-4.250000000,-4.562500000,-89.567008972,-0.012563701,-0.706540585,1.000000000,
1192,3.017590000,3.014571000,-0.035020258,0.143309817,9.893312454,0.307602555,-0.155094922,-0.308436245,-1.000000000,-4.250000000,-4.562500000,-89.565711975,-0.013271115,-0.700408220,1.000000000,
1194,3.022581000,3.014571000,-0.205188006,0.169501454,9.893261909,0.582614124,0.210556984,0.201107591,-1.000000000,-4.187500000,-4.562500000,-89.559425354,-0.012908343,-0.691417277,1.000000000,
1196,3.027580000,3.014571000,-0.222578213,0.098032564,9.778880119,0.466464847,0.144698843,0.528145730,-1.000000000,-4.187500000,-4.562500000,-89.549537659,-0.010397710,-0.687201619,1.000000000,
1198,3.032570000,3.014571000,-0.072248384,-0.011544912,9.655015945,0.040757582,-0.001474307,-0.126256987,-1.000000000,-4.187500000,-4.562500000,-89.541641235,-0.009583303,-0.683215618,1.000000000,
1200,3.037583000,3.034564000,0.016091824,-0.075853363,9.593058586,-0.354128957,-0.304286957,-0.664038301,-1.000000000,-4.187500000,-4.562500000,-89.548149109,-0.012716746,-0.674517035,1.000000000,
1202,3.042545000,3.034564000,-0.089137122,-0.032948799,9.638235092,-0.678586900,-0.277424932,-0.245323539,-1.000000000,-4.250000000,-4.500000000,-89.558166504,-0.014732970,-0.667183697,1.000000000,
1203,3.045562000,3.034564000,-0.177477345,0.024206635,9.700191498,-0.494330883,-0.034713123,0.173722580,-1.000000000,-4.250000000,-4.500000000,-89.563125610,-0.014242943,-0.664843917,1.000000000,
1205,3.050539000,3.034564000,-0.277267665,0.131272599,9.852903366,-0.013574705,0.458870798,0.297220021,-1.000000000,-4.250000000,-4.500000000,-89.571556091,-0.013018266,-0.668391347,1.000000000,
1207,3.055571000,3.034564000,-0.188287631,0.147961497,9.910094261,-0.013248059,0.271896482,0.354085207,-1.000000000,-4.250000000,-4.500000000,-89.577262878,-0.011662615,-0.677141786,1.000000000,
1209,3.060560000,3.054545000,-0.018180318,0.109928124,9.905226707,-0.287827045,-0.436347038,-0.041352846,-1.000000000,-4.250000000,-4.562500000,-89.584144592,-0.011521511,-0.684616208,1.000000000,
1211,3.065559000,3.054545000,0.003414374,0.105164468,9.909993172,0.006066709,-0.182464391,-0.545244098,-1.000000000,-4.250000000,-4.562500000,-89.591873169,-0.013702004,-0.679699481,1.000000000,
1213,3.070553000,3.054545000,-0.147608832,0.124164231,9.900511742,0.131701529,-0.065350823,-0.008602460,-1.000000000,-4.250000000,-4.562500000,-89.595924377,-0.014858332,-0.670399368,1.000000000,
1215,3.075558000,3.054545000,-0.253224105,0.131297186,9.869532585,0.289053142,0.236184791,0.679245770,-1.000000000,-4.250000000,-4.562500000,-89.593322754,-0.012191180,-0.682887495,1.000000000,
1217,3.080550000,3.074537000,-0.148078725,0.088524051,9.819339752,0.643686950,0.457725137,0.293527126,-0.937500000,-4.187500000,-4.562500000,-89.588386536,-0.010177250,-0.694850445,1.000000000,
1219,3.085554000,3.074537000,0.035944961,0.009964069,9.724020958,0.097005568,-0.277431846,-0.398342043,-0.937500000,-4.187500000,-4.562500000,-89.587715149,-0.011005472,-0.695400894,1.000000000,
1221,3.090549000,3.074537000,0.066740811,-0.013853007,9.654965401,-0.439830184,-0.557454348,-0.250569373,-0.937500000,-4.187500000,-4.562500000,-89.591888428,-0.012785685,-0.681729496,1.000000000,
1223,3.095543000,3.074537000,-0.079232156,0.045678504,9.695476532,-0.139058605,-0.031609964,-0.155484930,-0.937500000,-4.187500000,-4.562500000,-89.596031189,-0.013974538,-0.670710087,1.000000000,
1224,3.098564000,3.095545000,-0.165290982,0.071851023,9.735986710,-0.196717665,0.277076960,-0.002007168,-0.937500000,-4.187500000,-4.562500000,-89.598091125,-0.014126319,-0.665728807,1.000000000,
1226,3.103563000,3.095545000,-0.232202843,0.100417636,9.771730423,-0.043838214,0.210576788,0.323555171,-1.000000000,-4.250000000,-4.562500000,-89.602897644,-0.013166941,-0.658656716,1.000000000,
1228,3.108548000,3.095545000,-0.114643179,0.095677592,9.795560837,-0.195744053,-0.097241215,0.141474217,-1.000000000,-4.250000000,-4.562500000,-89.609062195,-0.011336949,-0.649717510,1.000000000,
1230,3.113568000,3.095545000,0.003070068,0.090920679,9.847985268,-0.055730507,-0.179998517,-0.723443508,-1.000000000,-4.250000000,-4.562500000,-89.612640381,-0.014069972,-0.639035463,1.000000000,
1232,3.118534000,3.115515000,-0.087769084,0.112321354,9.890878677,-0.350271225,-0.246537223,-0.306168556,-1.000000000,-4.250000000,-4.562500000,-89.615272522,-0.016342631,-0.625987649,1.000000000,
1234,3.123533000,3.115515000,-0.255233198,0.159939215,9.948019981,0.075534403,0.148318991,0.321998954,-1.000000000,-4.250000000,-4.562500000,-89.610900879,-0.015579079,-0.619724035,1.000000000,
1236,3.128527000,3.115515000,-0.281493008,0.167071417,9.967082977,0.525714040,0.642767429,0.415823996,-1.000000000,-4.250000000,-4.562500000,-89.603927612,-0.013634578,-0.631033540,1.000000000,
1237,3.131526000,3.115515000,-0.224217370,0.128993869,9.924139977,0.613919497,0.395454496,0.322541833,-1.000000000,-4.250000000,-4.562500000,-89.600120544,-0.012516909,-0.637227952,1.000000000,
1239,3.136523000,3.115515000,-0.050048687,0.026616499,9.778779984,0.190866202,-0.406870395,0.015900973,-1.000000000,-4.250000000,-4.562500000,-89.594131470,-0.011955084,-0.645779431,1.000000000,
1241,3.141535000,3.135504000,0.026115561,-0.025777830,9.678744316,-0.024700450,-0.212481260,-0.605064273,-1.000000000,-4.250000000,-4.562500000,-89.591369629,-0.014120416,-0.654165387,1.000000000,
1243,3.146529000,3.135504000,-0.079435699,0.005191521,9.659681320,-0.170649737,0.157019824,-0.331211507,-1.000000000,-4.250000000,-4.562500000,-89.599578857,-0.016669672,-0.650806487,1.000000000,
1245,3.151516000,3.135504000,-0.213498995,0.052887034,9.692891121,-0.310557336,0.084159754,0.590946794,-1.000000000,-4.250000000,-4.562500000,-89.608589172,-0.015116808,-0.654143095,1.000000000,
1247,3.156523000,3.135504000,-0.162736073,0.083854005,9.773913383,0.015366192,0.273305833,0.294269770,-1.000000000,-4.250000000,-4.562500000,-89.613082886,-0.013067964,-0.664573729,1.000000000,
1249,3.161516000,3.155501000,0.002990898,0.088496134,9.829022408,0.097056679,-0.028697034,-0.454264134,-1.000000000,-4.250000000,-4.625000000,-89.618606567,-0.014415059,-0.670117021,1.000000000,
1251,3.166513000,3.155501000,0.050909404,0.078977600,9.826639175,-0.381034374,-0.680856943,-0.341865480,-1.000000000,-4.250000000,-4.625000000,-89.620964050,-0.016309615,-0.656503201,1.000000000,
1253,3.171512000,3.155501000,-0.071136281,0.109909937,9.860001564,-0.079837762,-0.093303800,-0.216151163,-1.000000000,-4.250000000,-4.625000000,-89.622261047,-0.017350841,-0.643227875,1.000000000,
1255,3.176512000,3.155501000,-0.212252110,0.155130118,9.912425995,0.044359725,0.367564201,0.146797225,-1.000000000,-4.250000000,-4.625000000,-89.619850159,-0.017341444,-0.634036243,1.000000000,
1257,3.181501000,3.176484000,-0.205060050,0.152797028,9.917092323,0.228282958,0.330765605,0.591596425,-1.000000000,-4.250000000,-4.562500000,-89.611099243,-0.014258329,-0.632258892,1.000000000,
1258,3.184529000,3.176484000,-0.138020203,0.133753717,9.905177116,0.254448265,0.023997797,0.289527506,-1.000000000,-4.250000000,-4.562500000,-89.606399536,-0.013630578,-0.631653488,1.000000000,
1260,3.189497000,3.176484000,-0.008874372,0.067068689,9.855134964,0.487295330,-0.280312955,-0.251697361,-1.000000000,-4.250000000,-4.562500000,-89.596420288,-0.014049578,-0.626043320,1.000000000,
1262,3.194499000,3.176484000,-0.033305485,0.005020448,9.760018349,0.306024849,-0.681970477,-0.405096322,-1.000000000,-4.250000000,-4.562500000,-89.589736938,-0.016266285,-0.614633620,1.000000000,
1264,3.199484000,3.196465000,-0.187069580,-0.009299207,9.688529015,-0.223676696,0.087163374,0.263364464,-1.000000000,-4.250000000,-4.562500000,-89.590370178,-0.015691228,-0.603079021,1.000000000,
1266,3.204503000,3.196465000,-0.249374300,0.024180504,9.700191498,-0.103784673,0.739600420,0.242079839,-1.062500000,-4.250000000,-4.500000000,-89.596900940,-0.014141141,-0.612453759,1.000000000,
1268,3.209492000,3.196465000,-0.143759057,0.033737935,9.731170654,-0.046812315,0.214008704,0.055774678,-1.062500000,-4.250000000,-4.500000000,-89.600807190,-0.013510462,-0.623863459,1.000000000,
1270,3.214490000,3.196465000,-0.014166574,0.024203604,9.762199402,-0.288232118,-0.622476220,-0.044011045,-1.062500000,-4.250000000,-4.500000000,-89.607803345,-0.013984351,-0.630405307,1.000000000,
1271,3.217485000,3.196465000,0.005133923,0.038502581,9.786028862,-0.231703654,-0.649962604,-0.342288613,-1.062500000,-4.250000000,-4.500000000,-89.612365723,-0.015008029,-0.628205240,1.000000000,
1273,3.222486000,3.216475000,-0.092805348,0.093271583,9.845602989,-0.140503272,0.063355371,-0.302921623,-1.000000000,-4.250000000,-4.625000000,-89.620162964,-0.016808247,-0.622212887,1.000000000,
1275,3.227482000,3.216475000,-0.238829494,0.136118338,9.876581192,-0.281752169,0.365234822,0.416317374,-1.000000000,-4.250000000,-4.625000000,-89.624778748,-0.016021384,-0.627868593,1.000000000,
1277,3.232479000,3.216475000,-0.207470611,0.143235877,9.912376404,-0.129742682,0.299737364,0.652648032,-1.000000000,-4.250000000,-4.625000000,-89.622581482,-0.012561182,-0.640290499,1.000000000,
1279,3.237477000,3.216475000,-0.027625807,0.131368250,9.931441307,0.221705467,0.182854712,-0.005599922,-1.000000000,-4.250000000,-4.625000000,-89.616348267,-0.011988579,-0.649404645,1.000000000,
1281,3.242473000,3.236462000,0.060775999,0.105153605,9.876732826,0.277107447,-0.620823562,-0.314821720,-1.000000000,-4.250000000,-4.500000000,-89.607933044,-0.013616814,-0.643317759,1.000000000,
1283,3.247477000,3.236462000,-0.028306413,0.090860285,9.800477982,0.160899565,-0.531116128,-0.015337246,-1.000000000,-4.250000000,-4.500000000,-89.603012085,-0.013629562,-0.631033599,1.000000000,
1285,3.252481000,3.236462000,-0.170059711,0.078975156,9.738419533,0.103516877,0.430344999,0.087824851,-1.000000000,-4.250000000,-4.500000000,-89.597991943,-0.013234485,-0.621984661,1.000000000,
1286,3.256283000,3.236462000,-0.203777954,0.059906505,9.707440376,0.196069866,0.613409817,0.327977866,-1.000000000,-4.250000000,-4.500000000,-89.594795227,-0.012349090,-0.619165063,1.000000000,
1288,3.260462000,3.257443000,-0.141672015,0.012264815,9.669313431,-0.253364444,0.180300534,0.294533849,-1.000000000,-4.250000000,-4.500000000,-89.589935303,-0.010579421,-0.612845004,1.000000000,
1290,3.265506000,3.257443000,-0.007218812,-0.006739198,9.719255447,-0.261385351,-0.090340644,-0.393737465,-1.000000000,-4.250000000,-4.562500000,-89.592559814,-0.011832248,-0.602192998,1.000000000,
1292,3.270432000,3.257443000,-0.004399959,0.036133450,9.797893524,-0.294579208,-0.335256934,-0.664848447,-1.000000000,-4.250000000,-4.562500000,-89.596778870,-0.015172468,-0.589971483,1.000000000,
1294,3.275467000,3.257443000,-0.152669489,0.097988561,9.852803230,-0.166878983,-0.189427435,0.050760098,-1.000000000,-4.250000000,-4.562500000,-89.600387573,-0.015593556,-0.577896953,1.000000000,
1296,3.280454000,3.277435000,-0.260323018,0.133693397,9.888547897,0.076082818,0.365381479,0.325117975,-1.000000000,-4.250000000,-4.562500000,-89.602043152,-0.013865326,-0.579293668,1.000000000,
1298,3.285452000,3.277435000,-0.200406492,0.124226436,9.893212318,-0.075697340,0.430615336,0.118517019,-1.000000000,-4.250000000,-4.625000000,-89.599868774,-0.012788719,-0.592675149,1.000000000,
1300,3.290452000,3.277435000,-0.080680571,0.088516124,9.874148369,-0.079411514,-0.249290675,-0.129159570,-1.000000000,-4.250000000,-4.625000000,-89.597129822,-0.013128832,-0.603140235,1.000000000,
1302,3.295444000,3.277435000,-0.059115060,0.095604040,9.867150307,0.100272693,-0.405602068,-0.102525771,-1.000000000,-4.250000000,-4.625000000,-89.592750549,-0.014167418,-0.610853672,1.000000000,
1303,3.298452000,3.277435000,-0.099831089,0.112276800,9.871915817,0.338873357,-0.343355179,-0.162460640,-1.000000000,-4.250000000,-4.625000000,-89.589393616,-0.014352440,-0.614681244,1.000000000,
1305,3.303444000,3.297430000,-0.207941696,0.117108740,9.828871727,0.404131591,0.209982261,0.291323125,-1.000000000,-4.250000000,-4.562500000,-89.582801819,-0.013717194,-0.624172509,1.000000000,
1307,3.308446000,3.297430000,-0.198828891,0.062324375,9.740702629,0.316004753,0.177309304,0.440130681,-1.000000000,-4.250000000,-4.562500000,-89.578300476,-0.011197131,-0.636023104,1.000000000,
1309,3.313436000,3.297430000,-0.043336049,-0.009166968,9.683610916,-0.197156370,0.153183728,-0.033494726,-1.000000000,-4.250000000,-4.562500000,-89.577842712,-0.010305013,-0.647623241,1.000000000,
1311,3.318446000,3.297430000,0.064522199,-0.028203918,9.685994148,-0.383386701,-0.118350022,-0.631486416,-1.000000000,-4.250000000,-4.562500000,-89.585960388,-0.013105192,-0.646362841,1.000000000,
1313,3.323432000,3.317391000,-0.014207357,0.028927879,9.750385284,-0.409919381,-0.464250416,-0.279123187,-1.000000000,-4.187500000,-4.562500000,-89.592933655,-0.015319694,-0.634705186,1.000000000,
1315,3.328435000,3.317391000,-0.174278170,0.112266652,9.843319893,-0.106212415,0.089307167,0.084159784,-1.000000000,-4.187500000,-4.562500000,-89.598442078,-0.015018534,-0.625395358,1.000000000,
1317,3.333410000,3.317391000,-0.219680160,0.136176750,9.876481056,0.252436221,0.461714923,0.057629380,-1.000000000,-4.187500000,-4.562500000,-89.603096008,-0.014569487,-0.620379746,1.000000000,
1319,3.338436000,3.317391000,-0.114384860,0.098082475,9.847885132,-0.167158365,-0.002504905,0.023581896,-1.000000000,-4.187500000,-4.562500000,-89.611068726,-0.014093337,-0.616594315,1.000000000,
1321,3.343422000,3.338412000,-0.008799978,0.083702020,9.864767075,-0.080367453,-0.217091024,-0.247660100,-1.000000000,-4.250000000,-4.562500000,-89.611328125,-0.015090064,-0.605037928,1.000000000,
1322,3.346462000,3.338412000,-0.006262660,0.102762178,9.890980721,0.037331168,-0.184119865,-0.426382661,-1.000000000,-4.250000000,-4.562500000,-89.610656738,-0.016288061,-0.598176420,1.000000000,
1324,3.351395000,3.338412000,-0.118747681,0.138469487,9.919574738,0.280684590,-0.158455521,-0.040491793,-1.000000000,-4.250000000,-4.562500000,-89.606521606,-0.017311409,-0.587253034,1.000000000,
1326,3.356392000,3.338412000,-0.238830686,0.128940985,9.874248505,0.346614897,0.114208542,0.498632461,-1.000000000,-4.250000000,-4.562500000,-89.597457886,-0.015241462,-0.587976336,1.000000000,
1328,3.361385000,3.358366000,-0.198626548,0.057484575,9.774164200,0.493931264,0.365121901,0.263320267,-1.000000000,-4.250000000,-4.562500000,-89.591125488,-0.013229812,-0.598578811,1.000000000,
1330,3.366396000,3.358366000,-0.072185591,-0.023497956,9.664597511,-0.169304654,0.031067012,-0.213901296,-1.000000000,-4.250000000,-4.625000000,-89.590858459,-0.013836669,-0.610861242,1.000000000,
1332,3.371408000,3.358366000,-0.024305474,-0.028243594,9.655065536,-0.380837649,-0.183490738,-0.394335955,-1.000000000,-4.250000000,-4.625000000,-89.599464417,-0.015660394,-0.615285754,1.000000000,
1334,3.376412000,3.358366000,-0.122065581,0.045580462,9.748002052,-0.109945506,-0.030784557,-0.244859263,-1.000000000,-4.250000000,-4.625000000,-89.608474731,-0.017256271,-0.616513848,1.000000000,
1336,3.381376000,3.378357000,-0.231962115,0.102726661,9.812342644,0.045909084,0.334677249,0.295112848,-1.000000000,-4.250000000,-4.625000000,-89.614875793,-0.016423069,-0.623479903,1.000000000,
1337,3.384378000,3.378357000,-0.236718029,0.107465051,9.817159653,-0.131156042,0.114768535,0.531049788,-0.937500000,-4.250000000,-4.562500000,-89.617225647,-0.015006084,-0.629139006,1.000000000,
1339,3.389370000,3.378357000,-0.119337514,0.090822980,9.807627678,-0.045323875,0.118989155,0.173545718,-0.937500000,-4.250000000,-4.562500000,-89.620658875,-0.013773777,-0.640265584,1.000000000,
1341,3.394373000,3.378357000,0.002989702,0.098009177,9.826690674,-0.231723830,0.127547324,-0.479992718,-0.937500000,-4.250000000,-4.562500000,-89.626022339,-0.015634377,-0.650230587,1.000000000,
1343,3.399392000,3.378357000,-0.032715663,0.133734539,9.871967316,-0.140590295,-0.340841532,-0.278819710,-0.937500000,-4.250000000,-4.562500000,-89.630432129,-0.017701283,-0.643218279,1.000000000,
1345,3.404393000,3.398374000,-0.161823064,0.171803236,9.929158211,0.074728116,0.024847088,0.231073380,-1.000000000,-4.250000000,-4.500000000,-89.622787476,-0.016844699,-0.640192151,1.000000000,
1347,3.409401000,3.398374000,-0.202603072,0.167023972,9.922009468,0.644482374,0.332405508,0.351356655,-1.000000000,-4.250000000,-4.500000000,-89.612365723,-0.014832132,-0.644202709,1.000000000,
1349,3.414396000,3.398374000,-0.095421866,0.078939922,9.800427437,0.285006016,-0.070142135,0.347589821,-1.000000000,-4.250000000,-4.500000000,-89.602851868,-0.013150983,-0.648175716,1.000000000,
1351,3.419361000,3.398374000,0.018960662,-0.013935933,9.678895950,-0.199720129,-0.279253662,-0.218132094,-1.000000000,-4.250000000,-4.500000000,-89.595527649,-0.013175818,-0.645755649,1.000000000,
1353,3.424363000,3.418338000,-0.014705238,-0.016295496,9.659781456,-0.204197526,-0.025290856,-0.660902917,-1.000000000,-4.250000000,-4.625000000,-89.595924377,-0.016262051,-0.634681702,1.000000000,
1354,3.427389000,3.418338000,-0.086487032,0.007509144,9.681228638,-0.290886015,0.033675570,-0.391772866,-1.000000000,-4.250000000,-4.625000000,-89.597877502,-0.017369099,-0.629700005,1.000000000,
1356,3.432384000,3.418338000,-0.220310792,0.067026749,9.752717972,0.018763009,0.113884561,0.589689314,-1.000000000,-4.250000000,-4.625000000,-89.602996826,-0.015516139,-0.620356858,1.000000000,
1358,3.437387000,3.418338000,-0.203236908,0.093301229,9.814523697,0.284792572,0.210003972,0.321708709,-1.000000000,-4.250000000,-4.625000000,-89.605667114,-0.013316504,-0.631660163,1.000000000,
1360,3.442375000,3.439356000,-0.083421439,0.062349752,9.812141418,-0.169773430,-0.030587655,-0.214865670,-1.000000000,-4.250000000,-4.625000000,-89.608413696,-0.013628019,-0.643013299,1.000000000,
1362,3.447374000,3.439356000,-0.035532117,0.055145409,9.797994614,-0.411402732,-0.338139921,-0.426141709,-1.000000000,-4.187500000,-4.625000000,-89.615966797,-0.015516684,-0.642361522,1.000000000,
1364,3.452400000,3.439356000,-0.119079202,0.112302579,9.859951973,-0.080196783,-0.061789107,-0.245484069,-1.000000000,-4.187500000,-4.625000000,-89.613945007,-0.017298274,-0.634345949,1.000000000,
1366,3.457386000,3.439356000,-0.226551175,0.169495463,9.933721542,0.194828421,0.366047144,0.264917344,-1.000000000,-4.187500000,-4.625000000,-89.606307983,-0.016702328,-0.641722202,1.000000000,
1368,3.462374000,3.459355000,-0.212274134,0.162358925,9.914658546,0.495468110,0.052354939,0.467139900,-1.000000000,-4.187500000,-4.625000000,-89.598274231,-0.013962501,-0.650569379,1.000000000,
1370,3.467366000,3.459355000,-0.071379408,0.100399263,9.814724922,0.340736747,-0.190006956,-0.011508209,-1.000000000,-4.250000000,-4.562500000,-89.590080261,-0.013141748,-0.656872213,1.000000000,
1371,3.470365000,3.459355000,-0.006940871,0.069455855,9.764682770,0.158337876,-0.092765816,-0.306716114,-1.000000000,-4.250000000,-4.562500000,-89.585968018,-0.013953159,-0.658937514,1.000000000,
1373,3.475366000,3.459355000,-0.000159480,0.024225267,9.690760612,-0.261994690,-0.369535834,-0.427401066,-1.000000000,-4.250000000,-4.562500000,-89.578987122,-0.016107200,-0.655315042,1.000000000,
1375,3.480337000,3.459355000,-0.117540002,0.033714339,9.700292587,-0.195391327,0.057848848,0.143692940,-1.000000000,-4.250000000,-4.562500000,-89.573616028,-0.016621606,-0.647794068,1.000000000,
1377,3.485345000,3.479340000,-0.181913346,0.074212402,9.764582634,0.075991802,0.365487456,0.325096637,-1.062500000,-4.250000000,-4.625000000,-89.566101074,-0.015132952,-0.645712733,1.000000000,
1379,3.490357000,3.479340000,-0.121820070,0.078983180,9.797944069,0.044183996,0.181171343,0.173868656,-1.062500000,-4.250000000,-4.625000000,-89.557861328,-0.013767852,-0.649369419,1.000000000,
1381,3.495356000,3.479340000,-0.023599269,0.069485754,9.790794373,-0.318555504,-0.497509062,-0.101591192,-1.062500000,-4.250000000,-4.625000000,-89.553092957,-0.013962637,-0.641787708,1.000000000,
1383,3.500351000,3.479340000,-0.025867887,0.090929911,9.814623833,-0.321823835,-0.151643232,-0.453769118,-1.062500000,-4.250000000,-4.625000000,-89.552894592,-0.015898144,-0.629117131,1.000000000,
1385,3.505324000,3.499331000,-0.154953271,0.128922820,9.869584084,-0.106925398,0.183427528,-0.003753486,-1.000000000,-4.250000000,-4.562500000,-89.550178528,-0.016831158,-0.619691312,1.000000000,
1387,3.510346000,3.499331000,-0.250572741,0.159857750,9.914860725,0.106535926,0.209163174,0.382301360,-1.000000000,-4.250000000,-4.562500000,-89.542846680,-0.015372121,-0.624447405,1.000000000,
1388,3.513344000,3.499331000,-0.236142188,0.159857348,9.924392700,0.195623830,0.240727514,0.322746873,-1.000000000,-4.250000000,-4.562500000,-89.539619446,-0.014278251,-0.628844917,1.000000000,
1390,3.518319000,3.499331000,-0.111684769,0.124204434,9.898078918,0.370472908,0.152197927,-0.066361308,-1.000000000,-4.250000000,-4.562500000,-89.531913757,-0.013963079,-0.637811840,1.000000000,
1392,3.523337000,3.520318000,-0.028368004,0.074225552,9.793228149,0.068426207,-0.558772981,-0.253335595,-1.000000000,-4.250000000,-4.562500000,-89.524353027,-0.015317875,-0.642061651,1.000000000,
1394,3.528334000,3.520318000,-0.086309060,0.055151988,9.712257385,-0.020315293,-0.248642504,-0.218676493,-1.000000000,-4.250000000,-4.625000000,-89.517181396,-0.016404858,-0.644771814,1.000000000,
1396,3.533311000,3.520318000,-0.191732377,0.062263872,9.717023849,0.043503381,0.430751234,0.058423139,-1.000000000,-4.250000000,-4.625000000,-89.510353088,-0.016092839,-0.652922153,1.000000000,
1398,3.538338000,3.520318000,-0.201241851,0.062251955,9.731321335,-0.041629463,0.270225972,0.502982855,-1.000000000,-4.250000000,-4.625000000,-89.506126404,-0.013947114,-0.663671851,1.000000000,
1400,3.543330000,3.540311000,-0.088539280,0.047979824,9.743235588,-0.074444324,-0.130625412,0.289176583,-1.000000000,-4.250000000,-4.625000000,-89.503669739,-0.012156925,-0.674817383,1.000000000,
1402,3.548331000,3.540311000,0.005067553,0.040845297,9.769449234,-0.083034851,-0.276213020,-0.486547202,-1.062500000,-4.250000000,-4.562500000,-89.499237061,-0.013821078,-0.676522911,1.000000000,
1403,3.551327000,3.540311000,-0.011644427,0.047985211,9.781363487,-0.051488731,-0.247092962,-0.337516546,-1.062500000,-4.250000000,-4.562500000,-89.500282288,-0.014883040,-0.670398772,1.000000000,
1405,3.556330000,3.540311000,-0.128922597,0.083690785,9.809958458,-0.406303585,-0.033027634,-0.005211388,-1.062500000,-4.250000000,-4.562500000,-89.503753662,-0.014966468,-0.658915162,1.000000000,
1407,3.561336000,3.540311000,-0.210073099,0.138464481,9.871915817,0.015323990,0.304448515,0.235335290,-1.062500000,-4.250000000,-4.562500000,-89.500350952,-0.014298217,-0.660709500,1.000000000,
1409,3.566320000,3.560312000,-0.149953023,0.143256769,9.912376404,0.103144199,0.399675339,0.057634372,-1.000000000,-4.250000000,-4.625000000,-89.494529724,-0.013947057,-0.671293855,1.000000000,
1411,3.571317000,3.560312000,-0.039826185,0.109928712,9.890929222,-0.079654478,-0.311211377,-0.159746811,-1.000000000,-4.250000000,-4.625000000,-89.487014771,-0.014090164,-0.674779654,1.000000000,
1413,3.576313000,3.560312000,-0.018374655,0.090825833,9.864818573,0.217415377,-0.185392976,-0.367843151,-1.000000000,-4.250000000,-4.625000000,-89.480316162,-0.015160419,-0.667174220,1.000000000,
1415,3.581313000,3.560312000,-0.128859818,0.083659448,9.819541931,0.400500983,-0.065729246,-0.039807908,-1.000000000,-4.250000000,-4.625000000,-89.473236084,-0.016019903,-0.657701552,1.000000000,
1417,3.586314000,3.580294000,-0.225167915,0.074185044,9.740802765,0.048177734,0.021065207,0.558455825,-1.000000000,-4.250000000,-4.500000000,-89.467308044,-0.013811321,-0.660719812,1.000000000,
1419,3.591278000,3.580294000,-0.167765513,0.043222163,9.719355583,0.014644627,0.336332738,0.176251411,-1.000000000,-4.250000000,-4.500000000,-89.466926575,-0.012294601,-0.672491074,1.000000000,
1421,3.596277000,3.580294000,-0.043119684,0.028934287,9.721789360,-0.080909759,0.032331221,-0.333397299,-1.000000000,-4.250000000,-4.500000000,-89.471046448,-0.013166607,-0.683442295,1.000000000,
1422,3.599282000,3.580294000,-0.019115657,0.028938781,9.728938103,-0.201269478,-0.246366709,-0.366447747,-1.000000000,-4.250000000,-4.500000000,-89.475524902,-0.014104112,-0.681703448,1.000000000,
1424,3.604304000,3.601285000,-0.078799449,0.050350782,9.771831512,-0.170835093,-0.495860308,-0.280874491,-1.000000000,-4.250000000,-4.500000000,-89.483131409,-0.015555818,-0.673586607,1.000000000,
1426,3.609300000,3.601285000,-0.203075349,0.093185708,9.836172104,-0.106061697,0.369029552,0.058364067,-1.000000000,-4.187500000,-4.562500000,-89.491218567,-0.015932061,-0.672414720,1.000000000,
1428,3.614292000,3.601285000,-0.248507708,0.114616975,9.855236053,-0.044512518,0.273551971,0.235223770,-1.000000000,-4.187500000,-4.562500000,-89.493141174,-0.014393171,-0.685133278,1.000000000,
1430,3.619293000,3.601285000,-0.145517007,0.112325735,9.847985268,-0.102609016,0.240649983,0.413575590,-1.000000000,-4.187500000,-4.562500000,-89.493301392,-0.012328660,-0.698186934,1.000000000,
1432,3.624289000,3.621270000,-0.013654713,0.109983683,9.857517242,-0.051030092,-0.247620136,-0.278057277,-1.000000000,-4.187500000,-4.562500000,-89.492179871,-0.013165154,-0.708189428,1.000000000,
1434,3.629284000,3.621270000,-0.037621561,0.114719346,9.855185509,0.098632313,-0.372609168,-0.250862718,-1.000000000,-4.250000000,-4.562500000,-89.484954834,-0.015452255,-0.704263985,1.000000000,
1436,3.634294000,3.621270000,-0.155206814,0.128999576,9.826589584,0.104438163,0.024987618,0.230866715,-1.000000000,-4.250000000,-4.562500000,-89.477210999,-0.014457758,-0.698706448,1.000000000,
1438,3.639281000,3.621270000,-0.193727434,0.100466169,9.800226212,0.314090073,0.428315699,0.235368028,-1.000000000,-4.250000000,-4.562500000,-89.470939636,-0.013003329,-0.709296763,1.000000000,
1439,3.642279000,3.621270000,-0.160303503,0.074264660,9.776395798,0.223348126,0.367559969,0.145727977,-1.000000000,-4.250000000,-4.562500000,-89.469039917,-0.012840902,-0.714795768,1.000000000,
1441,3.647284000,3.641257000,-0.043108094,0.014602512,9.721840858,-0.136700183,-0.127632231,0.051517777,-1.062500000,-4.250000000,-4.500000000,-89.474197388,-0.012181885,-0.720261514,1.000000000,
1443,3.652286000,3.641257000,0.000042874,0.009848108,9.724223137,-0.201126128,-0.215433374,-0.365986943,-1.062500000,-4.250000000,-4.500000000,-89.480934143,-0.013830465,-0.711484730,1.000000000,
1445,3.657277000,3.641257000,-0.090809084,0.052709267,9.764734268,-0.019432886,0.030234827,-0.184948877,-1.062500000,-4.250000000,-4.500000000,-89.486824036,-0.015506924,-0.702872276,1.000000000,
1447,3.662247000,3.641257000,-0.205690637,0.081262693,9.793330193,-0.133293733,0.179433763,0.323671669,-1.062500000,-4.250000000,-4.500000000,-89.493759155,-0.014327676,-0.697026670,1.000000000,
1449,3.667286000,3.661250000,-0.186349377,0.102759093,9.828971863,0.045824368,0.148178428,0.322205603,-1.000000000,-4.250000000,-4.562500000,-89.501785278,-0.012395151,-0.697624981,1.000000000,
1451,3.672265000,3.661250000,-0.071173474,0.107554123,9.855185509,-0.020628279,0.000516126,-0.274684072,-1.000000000,-4.250000000,-4.562500000,-89.509735107,-0.013511522,-0.699564934,1.000000000,
1453,3.677268000,3.661250000,-0.027962103,0.095566720,9.862485886,-0.200172484,-0.465331197,-0.250477314,-1.000000000,-4.250000000,-4.562500000,-89.514915466,-0.014973952,-0.689107776,1.000000000,
1455,3.682265000,3.661250000,-0.119005993,0.114605539,9.867251396,-0.107462473,-0.189148799,-0.009005841,-1.000000000,-4.250000000,-4.562500000,-89.517494202,-0.015376308,-0.676489413,1.000000000,
1456,3.685265000,3.682246000,-0.181303918,0.121734522,9.869634628,0.221180797,0.090158433,-0.066356339,-1.000000000,-4.250000000,-4.562500000,-89.516433716,-0.015260649,-0.670682013,1.000000000,
1458,3.690270000,3.682246000,-0.239023834,0.128937736,9.836172104,0.316487134,0.301148266,0.441952616,-1.000000000,-4.250000000,-4.625000000,-89.511848450,-0.013729227,-0.682284951,1.000000000,
1460,3.695268000,3.682246000,-0.155451149,0.093236841,9.778981209,0.016349953,-0.038830500,0.379256129,-1.000000000,-4.250000000,-4.625000000,-89.509300232,-0.011720235,-0.692852020,1.000000000,
1462,3.700257000,3.682246000,-0.031021707,0.050385062,9.743235588,0.066791937,-0.059295315,-0.484290719,-1.000000000,-4.250000000,-4.625000000,-89.506538391,-0.012519082,-0.704600155,1.000000000,
1464,3.705254000,3.702235000,-0.028740292,0.024170836,9.721789360,-0.229566157,-0.061538391,-0.244642809,-1.000000000,-4.250000000,-4.625000000,-89.513465881,-0.014711957,-0.697579980,1.000000000,
1466,3.710252000,3.702235000,-0.141338110,0.036096007,9.733603477,-0.225309476,-0.284144193,0.198503360,-1.000000000,-4.250000000,-4.562500000,-89.521537781,-0.014128418,-0.690260470,1.000000000,
1468,3.715251000,3.702235000,-0.217759475,0.083725452,9.783646584,-0.133363739,0.490513146,0.298251361,-1.000000000,-4.250000000,-4.562500000,-89.528404236,-0.012837865,-0.697616994,1.000000000,
1470,3.720214000,3.702235000,-0.152762666,0.097925439,9.829125404,-0.016249480,0.150959715,0.084589496,-1.000000000,-4.250000000,-4.562500000,-89.530937195,-0.012532332,-0.709856749,1.000000000,
1471,3.723219000,3.702235000,-0.095245093,0.093177661,9.829125404,-0.106560104,-0.034691893,0.052693568,-1.000000000,-4.250000000,-4.562500000,-89.532257080,-0.012139525,-0.714808106,1.000000000,
1473,3.728238000,3.722197000,-0.018428236,0.090782821,9.850621223,-0.080833480,-0.465352863,-0.280862898,-1.000000000,-4.250000000,-4.625000000,-89.535850525,-0.013308960,-0.712868392,1.000000000,
1475,3.733240000,3.722197000,-0.085327327,0.112195030,9.888748169,-0.020689251,-0.061616406,-0.305228710,-1.000000000,-4.250000000,-4.625000000,-89.534835815,-0.014751751,-0.700657904,1.000000000,
1477,3.738235000,3.722197000,-0.207648531,0.126589477,9.881345749,0.194821119,0.117258087,0.291173875,-1.000000000,-4.250000000,-4.625000000,-89.528030396,-0.013934675,-0.698436916,1.000000000,
1479,3.743230000,3.722197000,-0.217490777,0.107539363,9.833687782,0.257272691,0.176237375,0.529733062,-1.000000000,-4.250000000,-4.625000000,-89.523841858,-0.011654079,-0.710147440,1.000000000,
1481,3.748238000,3.742209000,-0.097896382,0.071770139,9.783798218,0.339429110,0.122496441,-0.185598195,-1.000000000,-4.250000000,-4.562500000,-89.519615173,-0.011883151,-0.721894681,1.000000000,
1483,3.753234000,3.742209000,-0.021462224,0.038445339,9.736138344,0.099769078,-0.187324926,-0.188681126,-1.000000000,-4.250000000,-4.562500000,-89.521369934,-0.013477705,-0.723491311,1.000000000,
1485,3.758229000,3.742209000,-0.079041399,0.036095753,9.728887558,-0.110559911,-0.341070592,-0.249275386,-1.000000000,-4.250000000,-4.562500000,-89.526779175,-0.014618057,-0.713117242,1.000000000,
1487,3.763223000,3.742209000,-0.181952938,0.069423616,9.755101204,0.191166401,0.370269865,-0.092052124,-1.000000000,-4.250000000,-4.562500000,-89.533828735,-0.015000758,-0.710910738,1.000000000,
1488,3.766225000,3.763206000,-0.201048702,0.071792558,9.769398689,0.071545735,0.339516044,-0.091835700,-1.000000000,-4.250000000,-4.562500000,-89.536010742,-0.015401680,-0.716386020,1.000000000,
1490,3.771229000,3.763206000,-0.153181344,0.067048326,9.757483482,-0.074600294,0.211650819,0.234487444,-1.000000000,-4.250000000,-4.562500000,-89.539176941,-0.014005660,-0.728064597,1.000000000,
1492,3.776215000,3.763206000,0.012040891,0.086198606,9.731271744,-0.379111290,-0.247680560,-0.216730118,-1.000000000,-4.250000000,-4.562500000,-89.543563843,-0.014077565,-0.726448894,1.000000000,
1494,3.781213000,3.763206000,0.155847624,0.062406059,9.733654022,9.299363136,0.952971578,-3.823444843,-1.000000000,-4.250000000,-4.562500000,-89.513702393,-0.025287731,-0.724526405,1.000000000,
1496,3.786185000,3.783166000,-0.177724808,-0.401820123,8.311024666,-19.242675781,-7.152524948,14.578007698,-1.000000000,-4.250000000,-4.562500000,-89.541748047,0.014667230,-0.711742938,1.000000000,
1498,3.791179000,3.783166000,0.042585187,-0.226648554,10.505835533,2.176927805,7.340196133,-19.317020416,-1.000000000,-4.250000000,-4.562500000,-89.607711792,-0.037134767,-0.688837767,1.000000000,
1500,3.796206000,3.783166000,-0.844814718,1.335910678,12.612375259,1.096704721,6.581233501,-2.954987288,-1.000000000,-4.250000000,-4.562500000,-89.572135925,-0.064124517,-0.785216451,1.000000000,
1502,3.801203000,3.783166000,-1.238795519,1.222503543,10.653527260,17.082012177,-6.792658806,25.931196213,-1.000000000,-4.250000000,-4.562500000,-89.508132935,0.007725942,-0.712950766,1.000000000,
1504,3.806211000,3.803192000,1.114101648,-0.306801945,9.662215233,-2.554823637,-15.630907059,-8.516968727,-1.000000000,-4.250000000,-4.562500000,-89.498352051,0.052916486,-0.677486360,1.000000000,
1506,3.811202000,3.803192000,2.118766785,-1.354282498,7.524698257,2.517109632,30.606628418,-10.478474617,-1.000000000,-4.250000000,-4.625000000,-89.465011597,-0.035558447,-0.756086707,1.000000000,
1507,3.814208000,3.803192000,1.085147023,-2.377199411,6.948020458,-22.475173950,0.412578315,-9.044044495,-1.000000000,-4.250000000,-4.625000000,-89.523925781,-0.058030736,-0.755213141,1.000000000,
1509,3.819171000,3.803192000,-2.088487625,-0.745518565,7.734348297,-6.668777466,-5.895166874,13.336951256,-1.000000000,-4.250000000,-4.625000000,-89.599830627,-0.039190967,-0.655833781,1.000000000,
1511,3.824188000,3.803192000,-2.529690981,2.107619524,13.045971870,7.342367172,6.353997231,-5.878829479,-1.000000000,-4.250000000,-4.625000000,-89.588569641,-0.020586275,-0.733264923,1.000000000,
1513,3.829194000,3.823148000,-0.538781404,2.158748150,12.481209755,15.323951721,19.525308609,14.410430908,-0.937500000,-4.437500000,-4.562500000,-89.483146667,0.003112414,-0.798677921,1.000000000,
1515,3.834188000,3.823148000,2.600534439,-0.617855966,8.430172920,-2.328886032,-36.462905884,1.542411923,-0.937500000,-4.437500000,-4.562500000,-89.493080139,0.046298221,-0.692251384,1.000000000,
1517,3.839191000,3.823148000,2.761846066,-2.097738266,7.231492519,-9.885993958,17.644113541,-16.665185928,-0.937500000,-4.437500000,-4.562500000,-89.523429871,-0.016265344,-0.694734693,1.000000000,
1519,3.844193000,3.823148000,-0.659471691,-0.781076908,8.306208611,-4.403927326,-8.316305161,-14.682237625,-0.937500000,-4.437500000,-4.562500000,-89.560562134,-0.113419883,-0.678434610,1.000000000,
1521,3.849177000,3.844167000,-4.363387585,1.088074803,10.307948112,-10.443053246,9.963807106,27.003074646,-1.000000000,-4.500000000,-4.625000000,-89.620483398,-0.013052440,-0.733170867,1.000000000,
1522,3.852185000,3.844167000,-3.629464149,2.226937771,12.200020790,8.048726082,-8.399360657,14.590102196,-1.000000000,-4.500000000,-4.625000000,-89.598869324,0.023557452,-0.715617597,1.000000000,
1524,3.857182000,3.844167000,0.164633512,1.977131724,13.601201057,16.120740891,26.424833298,-1.386931777,-1.000000000,-4.500000000,-4.625000000,-89.511932373,0.023669777,-0.801757395,1.000000000,
1526,3.862184000,3.844167000,3.235256433,-0.863939345,9.702624321,3.569431305,-34.080081940,-9.020097733,-1.000000000,-4.500000000,-4.625000000,-89.463386536,-0.013800813,-0.708729744,1.000000000,
1528,3.867194000,3.864175000,1.656486154,-2.226306677,6.237796783,-12.536148071,-0.107989937,3.452221632,-1.000000000,-4.500000000,-4.625000000,-89.527137756,-0.003289244,-0.653711081,1.000000000,
1530,3.872170000,3.864175000,-1.409462929,-0.743361413,8.318427086,-5.335961342,12.370012283,-15.395707130,-1.000000000,-4.562500000,-4.625000000,-89.559211731,-0.074027337,-0.672020733,1.000000000,
1532,3.877174000,3.864175000,-2.967821121,0.795365572,9.993649483,1.879028201,14.014163017,15.834149361,-1.000000000,-4.562500000,-4.625000000,-89.566230774,-0.020459158,-0.799891055,1.000000000,
1534,3.882169000,3.864175000,-0.376809388,1.019656539,11.397114754,0.247205064,-11.238951683,12.271348953,-1.000000000,-4.562500000,-4.625000000,-89.575698853,0.047087889,-0.731773734,1.000000000,
1536,3.887170000,3.884151000,3.158517599,0.631986439,11.916599274,14.212754250,-7.261933327,-18.309904099,-1.000000000,-4.562500000,-4.625000000,-89.499801636,0.000193262,-0.724697590,1.000000000,
1538,3.892131000,3.884151000,1.489385366,-0.790026724,8.589831352,-3.351502419,-2.119295835,-3.917033672,-0.937500000,-4.562500000,-4.687500000,-89.498596191,-0.067876063,-0.674412906,1.000000000,
1539,3.895133000,3.884151000,-0.627845943,-1.269139767,7.052821159,-11.519021034,-1.735140324,9.285970688,-0.937500000,-4.562500000,-4.687500000,-89.528617859,-0.044905711,-0.665539861,1.000000000,
1541,3.900168000,3.884151000,-3.250177622,-0.059683278,8.292162895,-9.281936646,10.957008362,4.216283321,-0.937500000,-4.562500000,-4.687500000,-89.597007751,-0.018162232,-0.676420331,1.000000000,
1543,3.905132000,3.884151000,-1.790835381,1.281401277,11.385248184,4.946308136,19.043806076,0.176440701,-0.937500000,-4.562500000,-4.687500000,-89.567794800,-0.010053545,-0.818943799,1.000000000,
1545,3.910153000,3.904109000,1.455924630,0.824901342,11.280297279,2.834162712,-16.077627182,8.915288925,-1.062500000,-4.625000000,-4.625000000,-89.552246094,0.014321784,-0.757820487,1.000000000,
1547,3.915156000,3.904109000,3.135255098,0.077165507,10.710771561,5.137254238,-17.523221970,-10.162865639,-1.062500000,-4.625000000,-4.625000000,-89.525192261,0.004533397,-0.673169792,1.000000000,
1549,3.920154000,3.904109000,0.568212867,-0.335406661,9.314303398,3.817527294,12.834956169,-12.106222153,-1.062500000,-4.625000000,-4.625000000,-89.500022888,-0.071235582,-0.678118229,1.000000000,
1551,3.925152000,3.904109000,-3.251731873,-0.815011442,7.562825680,-11.090656281,-3.737905264,10.475361824,-1.062500000,-4.625000000,-4.625000000,-89.539245605,-0.044140853,-0.696337461,1.000000000,
1553,3.930150000,3.924126000,-2.897114992,-0.171894252,8.887752533,-5.055675030,14.375825882,13.109492302,-0.937500000,-4.687500000,-4.687500000,-89.578392029,0.031237736,-0.741119027,1.000000000,
1554,3.933150000,3.924126000,-0.831968069,0.400118470,10.543911934,4.312985420,11.871062279,-2.064375162,-0.937500000,-4.687500000,-4.687500000,-89.568138123,0.026137020,-0.775376439,1.000000000,
1556,3.938172000,3.924126000,2.624652624,0.460370064,11.580501556,6.531350136,-2.717304945,-7.728870392,-0.937500000,-4.687500000,-4.687500000,-89.531250000,-0.020452293,-0.770992219,1.000000000,
1558,3.943138000,3.924126000,2.267836094,-0.325541615,9.848035812,-2.132148504,-24.821048737,1.497974753,-0.937500000,-4.687500000,-4.687500000,-89.531661987,-0.016848933,-0.669475853,1.000000000,
1560,3.948134000,3.945115000,-0.715910017,-0.214295581,9.397655487,-0.883161724,10.543651581,-4.137936115,-0.937500000,-4.687500000,-4.687500000,-89.541076660,-0.033538092,-0.649854422,1.000000000,
1562,3.953138000,3.945115000,-2.673441887,0.199841887,9.485775948,-1.644090772,11.705214500,-0.010750991,-1.062500000,-4.687500000,-4.687500000,-89.540802002,-0.045670290,-0.736660421,1.000000000,
1564,3.958131000,3.945115000,-1.536212206,0.133619115,9.273691177,-7.275784969,2.289397001,16.878366470,-1.062500000,-4.687500000,-4.687500000,-89.575798035,0.024234731,-0.768340170,1.000000000,
1566,3.963124000,3.945115000,2.006662369,0.500907540,11.194460869,6.052203655,-7.065784454,-9.960201263,-1.062500000,-4.687500000,-4.687500000,-89.563713074,0.015095920,-0.730993330,1.000000000,
1568,3.968126000,3.965107000,2.377937794,0.424764782,11.158715248,9.316598892,-3.065506220,-12.748332024,-1.062500000,-4.687500000,-4.687500000,-89.513824463,-0.054062098,-0.719693899,1.000000000,
1570,3.973121000,3.965107000,-1.060841799,-0.433271378,8.537406921,-4.579419613,-11.208001137,8.250945091,-1.000000000,-4.625000000,-4.687500000,-89.519889832,-0.044172313,-0.643162012,1.000000000,
1571,3.976120000,3.965107000,-2.502581596,-0.433376700,7.829666615,-5.367258549,4.066087246,13.411469460,-1.000000000,-4.625000000,-4.687500000,-89.533325195,-0.010708014,-0.657809436,1.000000000,
1573,3.981119000,3.965107000,-2.188230515,-0.042827222,8.794816971,-0.535178661,17.860252380,-3.411231279,-1.000000000,-4.625000000,-4.687500000,-89.544746399,-0.005239114,-0.741230726,1.000000000,
1575,3.986121000,3.965107000,0.535684645,-0.116171889,9.504940033,-3.488538504,4.484310627,1.831315637,-1.000000000,-4.625000000,-4.687500000,-89.556838989,-0.002650886,-0.811319649,1.000000000,
1577,3.991115000,3.985103000,2.486301422,-0.001546379,10.360474586,-2.203532696,-20.577983856,-0.197195783,-0.937500000,-4.687500000,-4.625000000,-89.578880310,0.000935487,-0.706651628,1.000000000,
1579,3.996081000,3.985103000,1.359981656,0.781693280,11.711613655,9.077836990,-1.945783019,-12.879933357,-0.937500000,-4.687500000,-4.625000000,-89.544525146,-0.047982454,-0.672346592,1.000000000,
1581,4.001087000,3.985103000,-2.144972563,0.497677624,10.160153389,2.970688343,6.297539234,4.559480190,-0.937500000,-4.687500000,-4.625000000,-89.510490417,-0.061885703,-0.688479125,1.000000000,
1583,4.006076000,3.985103000,-3.157639503,-0.526756048,8.129869461,-8.247854233,0.319214135,15.724947929,-0.937500000,-4.687500000,-4.625000000,-89.541290283,0.017442789,-0.710304320,1.000000000,
1585,4.011101000,4.005065000,0.086130917,-0.500084817,9.242865562,-0.651441634,14.221385956,-5.366641045,-1.000000000,-4.687500000,-4.625000000,-89.559005737,0.021020334,-0.769198358,1.000000000,
1587,4.016091000,4.005065000,2.760303497,-0.125519961,10.508217812,0.987816334,-8.314248085,-10.932269096,-1.000000000,-4.687500000,-4.625000000,-89.557426453,-0.037055600,-0.763227582,1.000000000,
1588,4.019164000,4.005065000,2.460681200,0.026974646,10.498685837,-1.764783263,-16.773792267,-1.633589864,-1.000000000,-4.687500000,-4.625000000,-89.562400818,-0.041228063,-0.716730893,1.000000000,
1590,4.024108000,4.005065000,-0.028505618,0.622062206,10.655961990,4.594121933,-8.793669701,1.986005783,-1.000000000,-4.687500000,-4.625000000,-89.552436829,-0.025897648,-0.647187293,1.000000000,
1592,4.029101000,4.026082000,-2.275635719,0.685793340,10.367624283,7.135314465,16.732601166,-1.624006748,-1.000000000,-4.687500000,-4.625000000,-89.513122559,-0.035452086,-0.697956145,1.000000000,
1594,4.034112000,4.026082000,-1.862575412,-0.514513791,8.296777725,-5.979679108,2.003973722,9.576592445,-1.000000000,-4.687500000,-4.625000000,-89.522583008,0.000764459,-0.748342395,1.000000000,
1596,4.039100000,4.026082000,0.984352350,-0.894952416,8.261033058,-8.223910332,-2.300894260,1.671725631,-1.000000000,-4.687500000,-4.625000000,-89.574981689,0.028451167,-0.738056660,1.000000000,
1598,4.044094000,4.026082000,2.598743200,0.241430491,10.768012047,3.592487097,-1.258906126,-17.125423431,-1.000000000,-4.687500000,-4.625000000,-89.572013855,-0.041757826,-0.726193130,1.000000000,
1600,4.049082000,4.046063000,0.098021284,0.862692297,11.008691788,3.674934626,-7.462790966,2.486024380,-1.000000000,-4.687500000,-4.625000000,-89.551544189,-0.063281812,-0.691189051,1.000000000,
1602,4.054108000,4.046063000,-2.555530310,0.671618521,10.017276764,1.485553265,-2.797523737,12.265117645,-1.000000000,-4.687500000,-4.687500000,-89.540023804,-0.005092829,-0.657876849,1.000000000,
1604,4.059087000,4.046063000,-1.594785094,0.123863816,9.519237518,4.173769951,16.804433823,-1.815172315,-1.000000000,-4.687500000,-4.687500000,-89.519355774,0.007604844,-0.736974239,1.000000000,
1606,4.064082000,4.046063000,0.942071438,-0.937980473,8.420691490,-6.936832428,0.403032362,-1.332297802,-1.000000000,-4.687500000,-4.687500000,-89.540962219,-0.007012122,-0.774017394,1.000000000,
1607,4.067070000,4.046063000,1.758686304,-1.099751234,8.306308746,-10.362047195,-10.332396507,1.361286759,-1.000000000,-4.687500000,-4.687500000,-89.569503784,-0.004027938,-0.745187581,1.000000000,
1609,4.072076000,4.066037000,1.579834342,-0.006631105,10.250959396,0.216275066,-7.327043056,-7.789440632,-1.000000000,-4.687500000,-4.687500000,-89.591651917,-0.028800873,-0.682962060,1.000000000,
1611,4.077108000,4.066037000,-0.868596375,1.183762908,11.749842644,9.568539619,5.772590160,-4.530241966,-1.000000000,-4.687500000,-4.687500000,-89.549400330,-0.062762961,-0.696313143,1.000000000,
1613,4.082067000,4.066037000,-2.675489664,0.526071191,9.986450195,0.536693275,-0.848151326,15.452326775,-1.000000000,-4.687500000,-4.687500000,-89.529365540,-0.007909239,-0.706053972,1.000000000,
1615,4.087072000,4.066037000,-0.802916825,-0.516891837,8.806883812,-2.784280300,3.779164553,3.454245806,-1.000000000,-4.687500000,-4.687500000,-89.541435242,0.036638550,-0.724851549,1.000000000,
1617,4.092064000,4.086048000,1.957578659,-0.773598671,9.190489769,-1.978464007,6.162152767,-13.627258301,-0.937500000,-4.687500000,-4.750000000,-89.552902222,-0.019410387,-0.760799885,1.000000000,
1619,4.097045000,4.086048000,1.492091179,-0.347173750,9.533637047,-5.518191338,-13.110046387,-0.936277986,-0.937500000,-4.687500000,-4.750000000,-89.580650330,-0.046483569,-0.709823787,1.000000000,
1621,4.102078000,4.086048000,-0.887960434,0.864925444,10.832149506,3.849330425,-2.547077417,4.131799698,-0.937500000,-4.687500000,-4.750000000,-89.578849792,-0.025604174,-0.663029432,1.000000000,
1623,4.107059000,4.086048000,-1.916103125,1.252937198,11.275381088,10.404071808,11.705657959,0.072360635,-0.937500000,-4.687500000,-4.750000000,-89.524452209,-0.022735925,-0.715644181,1.000000000,
1624,4.110059000,4.107040000,-1.612308264,0.621787846,10.276919365,4.825254917,8.561933517,4.343387127,-0.937500000,-4.687500000,-4.750000000,-89.510124207,-0.011630275,-0.740629852,1.000000000,
1626,4.115054000,4.107040000,0.374089122,-0.976072669,7.975077152,-8.602069855,-7.695549488,6.180088043,-1.000000000,-4.687500000,-4.687500000,-89.535873413,0.024165057,-0.728604376,1.000000000,
1628,4.120059000,4.107040000,2.031878233,-0.849558234,8.749541283,-4.064671993,1.028521538,-12.290037155,-1.000000000,-4.687500000,-4.687500000,-89.572998047,-0.013851651,-0.711484313,1.000000000,
1630,4.125052000,4.107040000,0.624544680,0.331616759,10.436577797,1.268406749,0.251946360,-8.283074379,-1.000000000,-4.687500000,-4.687500000,-89.573791504,-0.072033219,-0.712921858,1.000000000,
1632,4.130045000,4.127026000,-2.058456659,0.955212176,10.651043892,1.523837328,-5.326340199,13.419353485,-1.000000000,-4.687500000,-4.687500000,-89.568618774,-0.026713755,-0.687899709,1.000000000,
1634,4.135051000,4.127026000,-1.749109268,0.824140370,10.684455872,6.678502560,6.753805637,4.575511456,-1.000000000,-4.687500000,-4.625000000,-89.538551331,0.015810434,-0.710066974,1.000000000,
1636,4.140041000,4.127026000,0.691117167,-0.349718451,9.442932129,1.247808933,6.115801334,-5.491881371,-1.000000000,-4.687500000,-4.625000000,-89.516380310,-0.005241941,-0.763083637,1.000000000,
1637,4.143044000,4.127026000,1.522233605,-1.068905354,8.458768845,-6.041753769,-4.756381035,-3.523116827,-1.000000000,-4.687500000,-4.625000000,-89.534004211,-0.014241036,-0.747422278,1.000000000,
1639,4.148042000,4.127026000,1.397164226,-1.049826741,8.375365257,-8.842213631,-9.456551552,-1.967509389,-1.000000000,-4.687500000,-4.625000000,-89.587615967,-0.021129541,-0.688093901,1.000000000,
1641,4.153075000,4.147060000,-0.485224664,0.617039084,10.848929405,4.280496120,6.282832623,-7.053441525,-1.000000000,-4.687500000,-4.687500000,-89.587776184,-0.054677654,-0.691639960,1.000000000,
1643,4.158069000,4.147060000,-2.215510130,1.171694040,11.301693916,5.371742249,3.198482037,8.638890266,-1.000000000,-4.687500000,-4.687500000,-89.551574707,-0.034748998,-0.728713632,1.000000000,
1645,4.163030000,4.147060000,-1.182903051,0.252466619,9.898281097,0.459315926,-3.312365770,11.400506973,-1.000000000,-4.687500000,-4.687500000,-89.540657043,0.028953275,-0.720597565,1.000000000,
1647,4.168042000,4.147060000,1.560489893,-0.575948715,9.326369286,0.530510008,3.822640181,-10.728016853,-1.000000000,-4.687500000,-4.687500000,-89.534980774,0.003511192,-0.733812153,1.000000000,
1649,4.173029000,4.167020000,1.761310577,-0.828200102,8.797149658,-5.311980247,-2.806455612,-8.201232910,-1.000000000,-4.687500000,-4.625000000,-89.554389954,-0.051529039,-0.723945439,1.000000000,
1651,4.178026000,4.167020000,-0.577305913,-0.018685548,9.323784828,-4.932004452,-7.603339195,5.536444664,-1.000000000,-4.687500000,-4.625000000,-89.589523315,-0.036173269,-0.674537182,1.000000000,
1653,4.183023000,4.167020000,-1.856652379,1.236270666,11.184929848,7.549295425,10.140377998,1.672726154,-1.000000000,-4.687500000,-4.625000000,-89.568588257,-0.019445701,-0.708044827,1.000000000,
1654,4.186029000,4.167020000,-1.591993570,1.269633293,11.377948761,9.540617943,10.770794868,0.510239601,-1.000000000,-4.687500000,-4.625000000,-89.542663574,-0.017973699,-0.738915801,1.000000000,
1656,4.191023000,4.188004000,0.044555098,-0.056760177,9.535918236,-0.884842336,-4.516546249,6.153296471,-1.000000000,-4.687500000,-4.625000000,-89.525527954,0.005710894,-0.744388402,1.000000000,
1658,4.200178000,4.188004000,1.653902769,-0.952033460,8.430223465,-5.636383057,-7.261313438,-4.394017220,-1.000000000,-4.687500000,-4.625000000,-89.551879883,0.003853554,-0.699125290,1.000000000,
1660,4.205233000,4.188004000,0.981036365,-0.330555618,9.428685188,-0.949849367,5.368069172,-12.364568710,-1.000000000,-4.687500000,-4.625000000,-89.564506531,-0.056923736,-0.706020832,1.000000000,
1662,4.210288000,4.188004000,-1.493764400,0.474045545,10.029293060,-1.920628309,-1.478332639,6.678163528,-1.000000000,-4.687500000,-4.625000000,-89.576248169,-0.052154332,-0.704169631,1.000000000,
1664,4.215343000,4.212324000,-1.934045076,0.864577711,10.603587151,3.062894344,0.969747901,11.060103416,-1.000000000,-4.687500000,-4.625000000,-89.568679810,0.008735922,-0.709913611,1.000000000,
1666,4.220398000,4.212324000,0.338468015,0.410054088,10.720098495,6.867220879,6.413734436,-5.577858925,-1.000000000,-4.687500000,-4.687500000,-89.531394958,0.000964873,-0.747819066,1.000000000,
1668,4.225453000,4.212324000,1.673523068,-0.828280628,8.966238976,-4.014513969,-7.678335667,-3.605371714,-1.000000000,-4.687500000,-4.687500000,-89.533042908,-0.024857368,-0.724811375,1.000000000,
1670,4.230508000,4.212324000,0.582957804,-0.883311987,8.489797592,-7.424306393,-6.955811977,-1.136319876,-1.000000000,-4.687500000,-4.687500000,-89.576622009,-0.029367872,-0.669920564,1.000000000,
1672,4.235563000,4.232544000,-1.288428903,0.466836751,10.336593628,2.882598877,10.100008965,-4.164729118,-1.000000000,-4.687500000,-4.687500000,-89.581291199,-0.049351543,-0.697672427,1.000000000,
1673,4.238091000,4.232544000,-1.899060965,0.881098568,10.868144989,4.464853287,10.496230125,1.099493623,-1.000000000,-4.687500000,-4.625000000,-89.570465088,-0.046409316,-0.728869855,1.000000000,
1675,4.243146000,4.232544000,-1.321677208,0.585934997,10.386788368,1.271925330,-4.035953522,12.010742188,-1.000000000,-4.687500000,-4.625000000,-89.557296753,0.006033264,-0.736988783,1.000000000,
1677,4.248201000,4.232544000,1.155904055,-0.099490434,9.857668877,2.014424562,-2.336250067,-2.520931244,-1.000000000,-4.687500000,-4.625000000,-89.546051025,0.018264160,-0.724467456,1.000000000,
1679,4.253256000,4.232544000,1.970458388,-0.542387247,9.359629631,-0.036218215,0.062852561,-12.831543922,-1.000000000,-4.687500000,-4.625000000,-89.540267944,-0.042916201,-0.717995763,1.000000000,
1681,4.258311000,4.252764000,-0.290880084,-0.485544711,8.658987045,-7.315554619,-5.706262589,3.225458384,-1.000000000,-4.625000000,-4.687500000,-89.571372986,-0.049424924,-0.685215473,1.000000000,
1683,4.263366000,4.252764000,-2.055236578,0.533573329,9.907660484,0.047093507,5.084919453,5.272477150,-1.000000000,-4.625000000,-4.687500000,-89.588584900,-0.018371090,-0.694118500,1.000000000,
1685,4.268421000,4.252764000,-1.149858713,1.033855319,11.146852493,7.171788216,9.976325989,-0.053480495,-1.000000000,-4.625000000,-4.687500000,-89.554763794,-0.014384700,-0.756785691,1.000000000,
1687,4.273476000,4.252764000,0.835135400,0.031490855,9.926776886,0.011800166,-7.905090332,3.838815212,-1.000000000,-4.625000000,-4.687500000,-89.538772583,0.000125489,-0.747034252,1.000000000,
1689,4.278531000,4.272984000,1.748307228,-0.644884408,9.042846680,-2.417258739,-8.004774094,-5.195714951,-1.000000000,-4.687500000,-4.687500000,-89.550422668,-0.009221075,-0.689208746,1.000000000,
1690,4.281058000,4.272984000,1.317808509,-0.506846309,9.207271576,-0.310369462,0.314884454,-10.594558716,-1.000000000,-4.687500000,-4.687500000,-89.552093506,-0.035578817,-0.685502946,1.000000000,
1692,4.286113000,4.272984000,-0.957687378,-0.035710473,9.438419342,-1.637620807,5.294545650,-1.321550012,-1.000000000,-4.687500000,-4.687500000,-89.558845520,-0.061801665,-0.703944802,1.000000000,
1694,4.291168000,4.272984000,-2.193172693,0.316670477,9.657500267,-3.170031548,-0.058378026,12.597152710,-1.000000000,-4.687500000,-4.687500000,-89.577064514,-0.009651705,-0.716213405,1.000000000,
1696,4.296223000,4.293204000,-0.310558081,0.571806788,10.794174194,4.973230839,4.993463993,-0.856041253,-1.000000000,-4.687500000,-4.687500000,-89.562561035,0.009409381,-0.745139062,1.000000000,
1698,4.301278000,4.293204000,1.667607784,0.033769671,10.529766083,3.102128029,-2.096765518,-7.046637058,-1.000000000,-4.625000000,-4.625000000,-89.537368774,-0.025993196,-0.748675764,1.000000000,
1700,4.306333000,4.293204000,0.993671894,-0.618937552,9.097604752,-4.752838612,-12.168569565,0.590569377,-1.000000000,-4.625000000,-4.625000000,-89.553642273,-0.032214779,-0.684526861,1.000000000,
1702,4.311388000,4.293204000,-0.967463315,-0.100021452,9.407340050,-0.507663608,5.112094402,-1.836227894,-1.000000000,-4.625000000,-4.625000000,-89.568626404,-0.036085881,-0.673961461,1.000000000,
1704,4.316443000,4.313424000,-1.896169782,0.450031936,10.069803238,1.991983294,10.834818840,1.831941009,-1.000000000,-4.625000000,-4.625000000,-89.560523987,-0.036564920,-0.740082562,1.000000000,
1706,4.321498000,4.313424000,-0.661291599,0.155088514,9.750334740,-1.924776793,-3.560529709,9.386350632,-1.000000000,-4.625000000,-4.687500000,-89.566596985,0.006488436,-0.750664353,1.000000000,
1708,4.326553000,4.313424000,1.600665927,-0.011213206,10.122076988,1.921676993,-3.884156704,-5.339653969,-1.000000000,-4.625000000,-4.687500000,-89.564941406,0.002481398,-0.724693418,1.000000000,
1710,4.331608000,4.313424000,1.557348609,-0.032668278,10.088715553,2.499512672,-1.309025288,-10.335421562,-1.000000000,-4.625000000,-4.687500000,-89.550094604,-0.052606482,-0.710223377,1.000000000,
1711,4.334136000,4.313424000,0.382612765,-0.111468352,9.564462662,-1.337242365,-4.065504551,-2.586720943,-1.000000000,-4.625000000,-4.687500000,-89.553848267,-0.059235822,-0.695216119,1.000000000,
1713,4.339191000,4.333644000,-1.918202758,0.059619982,9.095069885,-3.692224026,-0.162067577,8.551420212,-1.000000000,-4.625000000,-4.687500000,-89.574676514,-0.023245800,-0.683173716,1.000000000,
1715,4.344246000,4.333644000,-1.536644340,0.502662480,10.081616402,3.022727251,11.658769608,0.290532887,-1.000000000,-4.625000000,-4.687500000,-89.567543030,-0.008595788,-0.739084423,1.000000000,
1717,4.349301000,4.333644000,0.517062306,0.133925900,10.060019493,0.669230461,-0.408117771,0.013298672,-1.000000000,-4.625000000,-4.687500000,-89.555946350,-0.012231177,-0.771420181,1.000000000,
1719,4.354356000,4.333644000,1.662048459,-0.346967876,9.507171631,-2.786704302,-12.041091919,-0.013643563,-1.000000000,-4.625000000,-4.687500000,-89.567298889,-0.008941106,-0.707702518,1.000000000,
1720,4.356883000,4.353864000,1.459364176,-0.242243245,9.697808266,-0.351693034,-6.986877441,-5.014170170,-1.000000000,-4.625000000,-4.687500000,-89.568557739,-0.021707358,-0.684940577,1.000000000,
1722,4.361938000,4.353864000,-0.395664006,0.224036679,10.117463112,2.768217325,5.619283676,-5.834473133,-1.000000000,-4.687500000,-4.625000000,-89.556747437,-0.057056919,-0.691447794,1.000000000,
1724,4.366993000,4.353864000,-2.112663269,0.168953419,9.474062920,-2.899592876,1.839740276,9.676553726,-1.000000000,-4.687500000,-4.625000000,-89.566032410,-0.028124014,-0.717091799,1.000000000,
1726,4.372048000,4.353864000,-0.968590736,0.088250160,9.647917747,-1.001813054,2.353749275,5.418047905,-1.000000000,-4.687500000,-4.625000000,-89.576438904,0.013646049,-0.733693659,1.000000000,
1728,4.377103000,4.374084000,1.412718177,0.040997434,10.377104759,3.447810411,2.333544731,-8.860577583,-1.000000000,-4.687500000,-4.625000000,-89.563278198,-0.016925491,-0.751543880,1.000000000,
1730,4.382158000,4.374084000,1.409427166,-0.280576140,9.760018349,-1.700761080,-9.936918259,-2.221485138,-1.000000000,-4.625000000,-4.687500000,-89.564651489,-0.041861050,-0.707350433,1.000000000,
1732,4.387213000,4.374084000,-0.556946814,-0.035572581,9.538402557,-1.259039044,-3.748116732,1.821602941,-1.000000000,-4.625000000,-4.687500000,-89.576652527,-0.032778900,-0.661235511,1.000000000,
1734,4.392268000,4.374084000,-1.793192029,0.457279474,10.060170174,3.104866028,11.947148323,-0.449779063,-1.000000000,-4.625000000,-4.687500000,-89.567642212,-0.033846900,-0.712463617,1.000000000,
1736,4.397323000,4.394304000,-1.048150778,0.109732464,9.559747696,-2.065533161,2.093221903,6.610476494,-1.000000000,-4.625000000,-4.687500000,-89.568397522,-0.010446286,-0.751661777,1.000000000,
1737,4.399851000,4.394304000,-0.040413592,-0.152069196,9.331034660,-3.780445337,-4.327562809,6.499121666,-1.000000000,-4.625000000,-4.625000000,-89.577560425,0.005897701,-0.745962501,1.000000000,
1739,4.404906000,4.394304000,1.762785316,-0.099330485,9.960137367,1.183888674,-3.703439713,-7.267294884,-1.000000000,-4.625000000,-4.625000000,-89.581520081,-0.010929355,-0.721367359,1.000000000,
1741,4.409961000,4.394304000,1.002353907,0.174407691,10.272306442,2.975828409,-1.031327128,-7.804607868,-1.000000000,-4.625000000,-4.625000000,-89.566268921,-0.058738433,-0.707533479,1.000000000,
1743,4.415016000,4.394304000,-1.439547062,0.133492485,9.416821480,-2.268940926,-3.635335445,7.958830357,-1.000000000,-4.625000000,-4.625000000,-89.571678162,-0.037522443,-0.679089546,1.000000000,
1745,4.420071000,4.414524000,-1.846473455,0.226353288,9.514370918,0.342435926,7.638502121,4.592807293,-1.000000000,-4.687500000,-4.625000000,-89.575065613,-0.002873409,-0.710512578,1.000000000,
1747,4.425126000,4.414524000,0.055820096,0.033712842,9.852751732,0.913974285,6.834357738,-3.277812719,-1.000000000,-4.687500000,-4.625000000,-89.568008423,-0.013250012,-0.764267802,1.000000000,
1749,4.430181000,4.414524000,1.489621520,-0.375705332,9.526335716,-3.770310879,-9.896137238,-0.067118771,-1.000000000,-4.687500000,-4.625000000,-89.583747864,-0.017841948,-0.734669745,1.000000000,
1751,4.435236000,4.414524000,0.982467115,0.043389283,10.143523216,0.883081853,-5.258841038,-4.430970669,-1.000000000,-4.687500000,-4.625000000,-89.590225220,-0.031859957,-0.684543431,1.000000000,
1753,4.440291000,4.434744000,-0.918179333,0.550317824,10.558159828,4.713594913,5.888473034,-2.865535736,-1.000000000,-4.625000000,-4.625000000,-89.567947388,-0.054337535,-0.694208145,1.000000000,
1755,4.445346000,4.434744000,-1.937723160,0.130941883,9.478676796,-1.791120172,1.367765665,9.991089821,-1.000000000,-4.625000000,-4.625000000,-89.566184998,-0.018234333,-0.719046056,1.000000000,
1756,4.447873000,4.434744000,-1.412359953,-0.140474826,9.128380775,-3.294649601,0.075446680,9.356059074,-1.000000000,-4.625000000,-4.625000000,-89.573829651,0.005395293,-0.724137306,1.000000000,
1758,4.452928000,4.434744000,0.866884172,-0.261548489,9.593109131,0.193057641,3.671269894,-5.937354088,-1.000000000,-4.625000000,-4.625000000,-89.579139709,-0.003001351,-0.748598158,1.000000000,
1760,4.457983000,4.454964000,1.606920242,-0.168498844,9.945788383,-0.428864986,-4.136617661,-7.056356907,-1.000000000,-4.625000000,-4.625000000,-89.579971313,-0.045435384,-0.732145429,1.000000000,
1762,4.463038000,4.454964000,-0.121259399,0.133712575,9.898129463,-1.576618314,-8.207530975,3.515828848,-1.000000000,-4.687500000,-4.625000000,-89.590065002,-0.039292209,-0.680141211,1.000000000,
1764,4.468093000,4.454964000,-1.616502285,0.631208777,10.384252548,4.491178989,6.830525875,1.315166593,-1.000000000,-4.687500000,-4.625000000,-89.573959351,-0.027386123,-0.692409813,1.000000000,
1766,4.473148000,4.454964000,-1.209644318,0.254980803,9.836121559,1.696432829,7.286294937,2.675946951,-1.000000000,-4.687500000,-4.625000000,-89.556015015,-0.018873975,-0.746271551,1.000000000,
1768,4.478203000,4.475184000,0.532013237,-0.542541325,8.823361397,-5.158459663,-5.437113762,3.634100437,-1.000000000,-4.687500000,-4.625000000,-89.575126648,0.002488719,-0.742300212,1.000000000,
1770,4.483258000,4.475184000,1.636042118,-0.320837647,9.569229126,-0.679309011,-2.412524700,-8.339940071,-1.000000000,-4.687500000,-4.625000000,-89.590774536,-0.023511708,-0.713428199,1.000000000,
1772,4.488313000,4.475184000,0.307851344,0.319593728,10.369904518,2.258686304,0.024149928,-5.137329578,-1.000000000,-4.687500000,-4.625000000,-89.582237244,-0.061838746,-0.705052495,1.000000000,
1774,4.493368000,4.475184000,-1.748064280,0.471695662,9.988580704,-0.130308658,-2.570710421,9.331052780,-1.000000000,-4.687500000,-4.625000000,-89.581039429,-0.029978504,-0.692302406,1.000000000,
1776,4.498423000,4.495404000,-1.379492164,0.331208438,9.895645142,2.125054598,6.496118546,3.733679771,-1.000000000,-4.687500000,-4.625000000,-89.573165894,0.002144876,-0.721446991,1.000000000,
1778,4.503478000,4.495404000,0.648836255,-0.221073851,9.602590561,0.060366899,3.963276625,-4.414858818,-1.000000000,-4.625000000,-4.625000000,-89.566291809,-0.014324094,-0.761940598,1.000000000,
1779,4.506006000,4.495404000,1.313136458,-0.535351098,9.240380287,-3.463168621,-3.714204788,-2.957007408,-1.000000000,-4.625000000,-4.625000000,-89.576774597,-0.021839309,-0.747762442,1.000000000,
1781,4.511061000,4.495404000,1.091084123,-0.404457688,9.388276100,-3.843581915,-8.729753494,-1.508265615,-1.000000000,-4.625000000,-4.625000000,-89.602607727,-0.028368279,-0.693217576,1.000000000,
1783,4.516116000,4.495404000,-0.517700493,0.524134636,10.598820686,4.194383144,4.316347122,-3.688374758,-1.000000000,-4.625000000,-4.625000000,-89.594024658,-0.046473403,-0.688270807,1.000000000,
1785,4.521171000,4.515624000,-1.738794684,0.607255101,10.365341187,2.680907965,3.644238949,5.743663311,-1.000000000,-4.625000000,-4.687500000,-89.570549011,-0.032572098,-0.721257329,1.000000000,
1787,4.526226000,4.515624000,-0.799948037,-0.083267711,9.359730721,-1.885094881,-1.422713995,7.184667587,-1.000000000,-4.625000000,-4.687500000,-89.574394226,0.009699276,-0.726789773,1.000000000,
1789,4.531281000,4.515624000,1.225688457,-0.373456001,9.462147713,-0.128852218,2.112422943,-7.862150669,-1.000000000,-4.625000000,-4.687500000,-89.578819275,-0.010638038,-0.733743489,1.000000000,
1790,4.533808000,4.515624000,1.581083894,-0.354329646,9.593210220,-0.362555474,0.741657615,-9.933599472,-1.000000000,-4.625000000,-4.687500000,-89.580635071,-0.035352390,-0.730829656,1.000000000,
1792,4.538863000,4.535844000,0.310878634,-0.090126634,9.588444710,-2.920941591,-6.709175110,0.598391294,-1.000000000,-4.625000000,-4.687500000,-89.594505310,-0.049086530,-0.694880903,1.000000000,
1794,4.543918000,4.535844000,-1.401937485,0.552727699,10.174551964,1.737842202,0.928622484,4.638971329,-1.000000000,-4.625000000,-4.625000000,-89.595214844,-0.025587345,-0.684806585,1.000000000,
1796,4.548973000,4.535844000,-1.285405278,0.652747393,10.453359604,5.085957050,9.009603500,0.717879176,-1.000000000,-4.625000000,-4.625000000,-89.568038940,-0.018007860,-0.734665692,1.000000000,
1798,4.554028000,4.535844000,0.187068179,-0.249723390,9.295290947,-2.470053673,-2.860101461,3.060840845,-1.000000000,-4.625000000,-4.625000000,-89.566238403,-0.005808823,-0.747535348,1.000000000,
1800,4.559083000,4.556064000,1.347879767,-0.604400516,9.011717796,-3.950591803,-5.630683422,-3.546858072,-1.000000000,-4.625000000,-4.625000000,-89.592010498,-0.011664926,-0.715910196,1.000000000,
1802,4.564138000,4.556064000,0.622342527,0.050481897,10.024374962,1.093089700,2.020394325,-8.167765617,-1.000000000,-4.687500000,-4.687500000,-89.594810486,-0.052741744,-0.708558261,1.000000000,
1804,4.569193000,4.556064000,-1.348955870,0.502671897,10.224544525,0.548950195,-0.506938457,5.488072872,-1.000000000,-4.687500000,-4.687500000,-89.593948364,-0.044723794,-0.708557367,1.000000000,
1805,4.571721000,4.556064000,-1.826513410,0.526387870,10.103063583,0.149108842,-1.277156711,10.091851234,-1.000000000,-4.687500000,-4.687500000,-89.592987061,-0.019776361,-0.710793972,1.000000000,
1807,4.576776000,4.556064000,-0.740907729,0.316964626,10.095913887,3.028399944,4.934717178,1.772409797,-1.000000000,-4.687500000,-4.687500000,-89.580024719,0.005090138,-0.735933065,1.000000000,
1809,4.581831000,4.576284000,1.135386705,-0.294890165,9.605125427,-0.106606267,1.029373884,-5.645765781,-1.000000000,-4.625000000,-4.687500000,-89.570182800,-0.018987568,-0.753574729,1.000000000,
1811,4.586886000,4.576284000,1.177696824,-0.611636877,9.004618645,-5.334767342,-8.792330742,-1.173684716,-1.000000000,-4.625000000,-4.687500000,-89.595184326,-0.031213548,-0.708176553,1.000000000,
1813,4.591941000,4.576284000,-0.295992345,0.150291175,9.936307907,0.349284232,0.612034023,-2.112985849,-1.000000000,-4.625000000,-4.687500000,-89.606880188,-0.038808547,-0.684756517,1.000000000,
1815,4.596996000,4.576284000,-1.533420920,0.755024314,10.679791451,4.583287716,7.076302528,1.496718049,-1.000000000,-4.625000000,-4.687500000,-89.586959839,-0.039377939,-0.718198419,1.000000000,
1817,4.602051000,4.596504000,-1.041627645,0.250269294,9.886113167,-0.169633090,-1.502371788,8.304873466,-0.937500000,-4.625000000,-4.687500000,-89.578811646,-0.002926868,-0.731678426,1.000000000,
1819,4.607106000,4.596504000,0.854199946,-0.321035415,9.466711998,-0.704411745,-1.180620790,-2.519563437,-0.937500000,-4.625000000,-4.687500000,-89.581207275,0.002941517,-0.731678307,1.000000000,
1821,4.612161000,4.596504000,1.451825380,-0.399647385,9.626470566,-1.160246730,0.141855523,-8.955780029,-0.937500000,-4.625000000,-4.687500000,-89.586082458,-0.041173857,-0.724067748,1.000000000,
1822,4.614688000,4.596504000,0.773750782,-0.325996190,9.655065536,-3.354863644,-2.644111395,-4.162490845,-0.937500000,-4.625000000,-4.687500000,-89.595443726,-0.051645827,-0.711944818,1.000000000,
1824,4.619743000,4.616724000,-1.100920796,0.066272177,10.443828583,-4.379910946,-1.618597984,5.975345135,-0.937500000,-4.625000000,-4.687500000,-89.621368408,-0.031293169,-0.687991142,1.000000000,
1826,4.624798000,4.616724000,-1.350977421,0.503430188,12.972101212,-3.991722345,9.206912041,1.633123279,-0.937500000,-4.687500000,-4.687500000,-89.644050598,-0.013222673,-0.732366741,1.000000000,
1828,4.629853000,4.616724000,-0.103851117,0.428284317,15.819741249,-7.025580406,5.004914284,-1.891556263,-0.937500000,-4.687500000,-4.687500000,-89.670578003,-0.021658020,-0.778033435,1.000000000,
1830,4.634908000,4.616724000,0.791530490,0.255192071,18.769849777,-6.798305035,-7.359605789,-1.234750986,-0.937500000,-4.687500000,-4.687500000,-89.708183289,-0.028455192,-0.753795981,1.000000000,
1832,4.639963000,4.636944000,0.220374823,0.442112595,20.857326508,-0.375451118,-2.860954285,-2.277318954,-0.937500000,-4.687500000,-4.687500000,-89.706336975,-0.038329162,-0.725573599,1.000000000,
1834,4.645018000,4.636944000,-1.188086629,0.870751739,20.995431900,-4.035378933,-3.085940599,-3.421161413,-1.000000000,-4.687500000,-4.625000000,-89.722854614,-0.056300014,-0.701901495,1.000000000,
1836,4.650073000,4.636944000,-2.027760267,1.266871572,19.939783096,2.332248449,7.617570877,3.391319275,-1.000000000,-4.687500000,-4.625000000,-89.710731506,-0.046171442,-0.741395235,1.000000000,
1837,4.652601000,4.636944000,-1.765541911,1.260232449,19.232042313,4.957834244,1.459249973,3.795640707,-1.000000000,-4.687500000,-4.625000000,-89.695648193,-0.036694486,-0.748750448,1.000000000,
1839,4.657656000,4.636944000,-0.170831844,0.275169522,16.739463806,14.235074043,2.665468454,7.333111286,-1.000000000,-4.687500000,-4.625000000,-89.625526428,-0.005219953,-0.761543632,1.000000000,
1841,4.662711000,4.657164000,1.801463366,-1.555649161,13.146159172,7.267188072,-11.233778000,-2.050710201,-1.000000000,-4.750000000,-4.625000000,-89.577735901,0.001044035,-0.723616004,1.000000000,
1843,4.667766000,4.657164000,2.002083540,-2.838811874,9.893414497,0.866228223,2.936475754,-4.403995514,-1.000000000,-4.750000000,-4.625000000,-89.571388245,-0.021530420,-0.711843312,1.000000000,
1845,4.672821000,4.657164000,0.480240554,-2.471498966,9.009031296,-8.017030716,-1.390146375,-4.178940773,-1.000000000,-4.750000000,-4.625000000,-89.610031128,-0.046554402,-0.703728259,1.000000000,
1847,4.677876000,4.657164000,-0.990506411,-0.739491761,10.486469269,0.483551741,9.513748169,3.577006102,-1.000000000,-4.750000000,-4.625000000,-89.630058289,-0.033986248,-0.742317259,1.000000000,
1849,4.682931000,4.677384000,-0.757893741,0.609126210,11.835629463,8.129677773,-2.280740499,1.791229963,-1.062500000,-4.687500000,-4.625000000,-89.602249146,-0.026799440,-0.739707232,1.000000000,
1851,4.687986000,4.677384000,0.332026154,0.798470259,10.846699715,7.062574387,-6.856894016,0.512135208,-1.062500000,-4.687500000,-4.625000000,-89.572746277,-0.015840108,-0.718558311,1.000000000,
1853,4.693041000,4.677384000,0.493051589,0.420737207,8.704315186,4.630894661,0.565921605,-4.249799728,-1.062500000,-4.687500000,-4.625000000,-89.547195435,-0.037875742,-0.689365447,1.000000000,
1855,4.698096000,4.677384000,-0.598049462,0.187804401,6.795561790,-2.845142126,-0.038069274,-1.628652930,-1.062500000,-4.687500000,-4.625000000,-89.547409058,-0.047885872,-0.692143261,1.000000000,
1856,4.700623000,4.697604000,-1.151217341,0.373797655,6.430967808,-6.871252060,0.766083419,1.916133404,-1.062500000,-4.687500000,-4.625000000,-89.562950134,-0.042979471,-0.698934376,1.000000000,
1858,4.705678000,4.697604000,-0.986545742,1.453199387,7.636847973,-1.756484628,5.601701260,1.480677843,-1.000000000,-4.750000000,-4.625000000,-89.578620911,-0.026739232,-0.737590194,1.000000000,
1860,4.710733000,4.697604000,0.213543192,2.270473480,9.312071800,6.020343304,1.413486004,-0.287506282,-1.000000000,-4.750000000,-4.625000000,-89.547622681,-0.032926314,-0.747356355,1.000000000,
1862,4.715788000,4.697604000,0.765437484,1.662904501,8.997420311,6.301696301,-11.753180504,-0.029261565,-1.000000000,-4.750000000,-4.625000000,-89.507438660,-0.029479867,-0.709906578,1.000000000,
1864,4.720843000,4.717824000,-0.070271194,0.333118230,7.341259956,2.481837511,-1.519587040,-0.875219047,-1.000000000,-4.750000000,-4.625000000,-89.483459473,-0.033852823,-0.678705990,1.000000000,
1866,4.725898000,4.717824000,-1.286883712,-0.789649367,6.159309864,-6.372311592,3.453390360,-2.095600605,-1.000000000,-4.687500000,-4.625000000,-89.496307373,-0.044968523,-0.696846366,1.000000000,
1868,4.730953000,4.717824000,-1.417879462,-0.968876421,6.757433891,-10.561395645,7.905511856,5.221508026,-1.000000000,-4.687500000,-4.625000000,-89.552246094,-0.025052436,-0.742145240,1.000000000,
1870,4.736008000,4.717824000,0.164933607,-0.156919390,9.638385773,-7.121900558,0.655537546,0.874380469,-1.000000000,-4.687500000,-4.625000000,-89.597785950,-0.014019535,-0.761946261,1.000000000,
1871,4.738536000,4.717824000,1.031644106,0.264461249,11.265949249,-2.857353687,0.007118858,-2.758773327,-1.000000000,-4.687500000,-4.625000000,-89.608863831,-0.021016246,-0.762298882,1.000000000,
1873,4.743591000,4.738044000,1.480143309,0.551986992,13.110464096,4.860215664,-6.451830864,-4.171905518,-1.000000000,-4.687500000,-4.625000000,-89.593894958,-0.043770775,-0.730373859,1.000000000,
1875,4.748646000,4.738044000,0.096586399,-0.137245044,12.526638985,2.688439369,-5.780993938,2.247408152,-1.000000000,-4.687500000,-4.625000000,-89.578308105,-0.039461389,-0.685290515,1.000000000,
1877,4.753701000,4.738044000,-1.047290325,-1.009385467,11.060963631,-0.757826626,4.496768951,2.798595428,-1.000000000,-4.687500000,-4.625000000,-89.578926086,-0.024434637,-0.689405143,1.000000000,
1879,4.758756000,4.738044000,-0.748906016,-1.521515727,10.393733025,-6.562748909,7.101944923,-0.852596700,-1.000000000,-4.687500000,-4.625000000,-89.613159180,-0.026083151,-0.726924896,1.000000000,
1881,4.763811000,4.758264000,0.275815010,-1.128217101,11.092094421,-3.942214489,-1.072024584,-0.655283868,-1.000000000,-4.687500000,-4.562500000,-89.642639160,-0.029884461,-0.735875666,1.000000000,
1883,4.768866000,4.758264000,0.769266307,-0.053465471,12.386043549,4.323760033,-4.714131832,-1.495899558,-1.000000000,-4.687500000,-4.562500000,-89.642807007,-0.035508912,-0.710732758,1.000000000,
1885,4.773921000,4.758264000,0.207845345,0.513921320,12.273942947,8.843529701,-1.590840936,-1.387063026,-1.000000000,-4.687500000,-4.562500000,-89.607780457,-0.042735152,-0.694173813,1.000000000,
1887,4.778976000,4.758264000,-0.635471702,0.078570262,10.093531609,3.664527655,-0.176795706,3.273695946,-1.000000000,-4.687500000,-4.562500000,-89.589820862,-0.032290924,-0.687091231,1.000000000,
1889,4.784031000,4.778484000,-0.521510959,-0.649846852,8.106191635,-1.989222646,3.604518890,2.376101971,-1.000000000,-4.687500000,-4.625000000,-89.600387573,-0.018218439,-0.700855613,1.000000000,
1890,4.786558000,4.778484000,-0.073221639,-0.749576628,7.684406757,-3.250552177,3.151097775,-0.867066860,-1.000000000,-4.687500000,-4.625000000,-89.612365723,-0.020230515,-0.709127486,1.000000000,
1892,4.791613000,4.778484000,0.624623179,-0.086789183,8.213424683,-5.148758411,-0.058140490,-4.562419415,-1.000000000,-4.687500000,-4.625000000,-89.647193909,-0.040510409,-0.710465133,1.000000000,
1894,4.796668000,4.778484000,0.146296158,1.261648893,9.733805656,-0.049595710,-3.635818958,-2.468551397,-1.000000000,-4.687500000,-4.625000000,-89.653442383,-0.056549605,-0.690923214,1.000000000,
1896,4.801723000,4.798704000,-1.071882963,2.095277309,10.491588593,7.009798527,-0.337236583,3.015167713,-1.000000000,-4.687500000,-4.625000000,-89.617851257,-0.050174244,-0.682872415,1.000000000,
1898,4.806778000,4.798704000,-1.389023662,1.495021343,9.459562302,5.740164757,0.642879069,4.374992371,-1.000000000,-4.750000000,-4.625000000,-89.576965332,-0.028516250,-0.686973393,1.000000000,
1900,4.811833000,4.798704000,-0.256521493,0.161376208,7.474554539,-0.441273183,2.799651146,1.909819722,-1.000000000,-4.750000000,-4.625000000,-89.562995911,-0.012844664,-0.705426872,1.000000000,
1902,4.816888000,4.798704000,0.986115158,-0.662906826,6.795712948,-5.982057095,0.250605077,-4.285610199,-1.000000000,-4.750000000,-4.625000000,-89.583808899,-0.027492233,-0.709434986,1.000000000,
1904,4.821943000,4.818924000,0.796302080,-0.365671784,8.044385910,-4.819936275,-1.738316178,-4.349883080,-1.000000000,-4.750000000,-4.625000000,-89.608787537,-0.049129307,-0.695440829,1.000000000,
1906,4.826998000,4.818924000,-0.508967876,0.603178978,9.993550301,-1.379591465,-1.476426959,1.408075452,-1.000000000,-4.687500000,-4.562500000,-89.619537354,-0.050503239,-0.675356567,1.000000000,
1907,4.829526000,4.818924000,-1.041460633,0.902934551,10.801373482,2.042236090,0.613911092,2.401049614,-1.000000000,-4.687500000,-4.562500000,-89.610504150,-0.044537947,-0.676933467,1.000000000,
1909,4.834581000,4.818924000,-1.104348302,0.692938209,11.144417763,5.403874397,2.953656435,3.338323355,-1.000000000,-4.687500000,-4.562500000,-89.579124451,-0.028427098,-0.694906771,1.000000000,
1911,4.839636000,4.818924000,-0.072368369,-0.550681233,10.076850891,-0.811660707,-1.571057558,1.433349729,-1.000000000,-4.687500000,-4.562500000,-89.571044922,-0.016065782,-0.701466322,1.000000000,
1913,4.844691000,4.839144000,0.845037162,-1.241416693,9.547681808,-5.435420036,-0.755756617,-3.291240692,-1.000000000,-4.687500000,-4.500000000,-89.602233887,-0.026490450,-0.697232008,1.000000000,
1915,4.849746000,4.839144000,0.584111392,-0.667446315,10.496102333,-3.493477821,1.666577101,-3.743636131,-1.000000000,-4.687500000,-4.500000000,-89.631141663,-0.050065182,-0.699582338,1.000000000,
1917,4.854801000,4.839144000,-0.401366115,0.192106768,11.735444069,1.091971636,0.018055173,3.082199097,-1.000000000,-4.687500000,-4.500000000,-89.636581421,-0.043651875,-0.699732125,1.000000000,
1919,4.859856000,4.839144000,-0.533385575,0.482707292,12.142930031,5.431788445,-0.558384955,3.645531893,-1.000000000,-4.687500000,-4.500000000,-89.620948792,-0.022324633,-0.691743255,1.000000000,
1921,4.864911000,4.859364000,0.235881969,-0.100620888,11.246885300,6.654512405,0.226096123,-2.271884203,-1.000000000,-4.687500000,-4.625000000,-89.596466064,-0.025084142,-0.689949214,1.000000000,
1922,4.867438000,4.859364000,0.487234235,-0.538688660,10.300848961,4.198927879,-1.255718470,-2.458038807,-1.000000000,-4.687500000,-4.625000000,-89.589477539,-0.031584062,-0.684270382,1.000000000,
1924,4.872493000,4.859364000,0.209451854,-1.229216576,8.556520462,-4.753114700,-4.175653934,-0.546091735,-1.000000000,-4.687500000,-4.625000000,-89.609558105,-0.037071165,-0.661896229,1.000000000,
1926,4.877548000,4.859364000,-0.546751916,-0.645499229,8.759174347,-2.993655443,4.657231331,-2.215972900,-1.000000000,-4.687500000,-4.625000000,-89.638946533,-0.044086065,-0.669405520,1.000000000,
1928,4.882603000,4.879584000,-0.877834260,0.536260843,10.031676292,0.441996723,5.238840580,0.273208052,-1.000000000,-4.687500000,-4.625000000,-89.650932312,-0.047747813,-0.702256560,1.000000000,
1930,4.887658000,4.879584000,-0.256677210,1.046471357,10.565358162,4.461854935,-1.943453312,5.386895180,-1.000000000,-4.750000000,-4.625000000,-89.633506775,-0.024783239,-0.708982944,1.000000000,
1932,4.892713000,4.879584000,0.838019431,0.777761459,10.019659042,4.899163246,-4.755183697,-0.785473228,-1.000000000,-4.750000000,-4.625000000,-89.600830078,-0.018134095,-0.686471283,1.000000000,
1934,4.897768000,4.879584000,0.773704588,0.158509240,8.749642372,0.124231167,-1.418489218,-6.068559647,-1.000000000,-4.750000000,-4.625000000,-89.588714600,-0.047343701,-0.668890595,1.000000000,
1935,4.900296000,4.879584000,0.139799163,-0.148903608,8.077646255,-0.988752365,-0.198231593,-4.110933304,-1.000000000,-4.750000000,-4.625000000,-89.588630676,-0.057700764,-0.664552927,1.000000000,
1937,4.905351000,4.899804000,-1.387066364,-0.218336970,7.582040310,-5.145129681,1.109515905,3.905421495,-1.000000000,-4.750000000,-4.625000000,-89.602569580,-0.047378846,-0.669472873,1.000000000,
1939,4.910406000,4.899804000,-1.404889822,0.355606139,8.725862503,-3.187659025,3.579447031,2.114505291,-1.000000000,-4.750000000,-4.625000000,-89.620903015,-0.031338211,-0.692524791,1.000000000,
1941,4.915461000,4.899804000,-0.064528443,0.932261109,10.193717957,0.905042648,4.011282444,-0.966786265,-1.000000000,-4.750000000,-4.625000000,-89.617309570,-0.034927126,-0.728167832,1.000000000,
1943,4.920516000,4.899804000,0.864004552,0.663051128,10.391503334,2.758266926,-6.131505489,0.456581563,-1.000000000,-4.750000000,-4.625000000,-89.597290039,-0.037502859,-0.709527969,1.000000000,
1945,4.925571000,4.920024000,0.696968734,-0.030404575,9.633721352,1.198571086,-5.468582153,-0.120682910,-1.000000000,-4.812500000,-4.500000000,-89.581237793,-0.032664653,-0.674135864,1.000000000,
1947,4.930626000,4.920024000,-0.137723416,-0.447627902,9.059427261,-4.024703503,4.116841316,-3.497602224,-1.000000000,-4.812500000,-4.500000000,-89.590293884,-0.046809524,-0.672138155,1.000000000,
1949,4.935681000,4.920024000,-0.816604078,-0.426534265,9.390507698,-3.960389137,4.325859070,-0.310955852,-1.000000000,-4.812500000,-4.500000000,-89.614768982,-0.052323546,-0.691256106,1.000000000,
1951,4.940736000,4.920024000,-0.614839137,-0.126611963,10.367522240,-2.266736507,-0.151410833,4.913300514,-1.000000000,-4.812500000,-4.500000000,-89.630012512,-0.032375742,-0.705910325,1.000000000,
1953,4.945791000,4.940244000,0.328730136,0.290248811,11.578117371,1.504708886,-3.390633821,-2.503355980,-1.000000000,-4.750000000,-4.562500000,-89.632698059,-0.035400797,-0.696836472,1.000000000,
1955,4.950846000,4.940244000,0.511381030,0.366557747,11.673436165,4.521584988,0.803170383,-3.323367834,-1.000000000,-4.750000000,-4.562500000,-89.610549927,-0.055124823,-0.691321433,1.000000000,
1956,4.953373000,4.940244000,0.194155008,0.063992009,11.063398361,4.068993568,-2.428572416,-0.480161935,-1.000000000,-4.750000000,-4.562500000,-89.599838257,-0.056047097,-0.680117726,1.000000000,
1958,4.958428000,4.940244000,-0.461056262,-0.595812023,9.547833443,0.377736986,-0.111606598,6.179064751,-1.000000000,-4.750000000,-4.562500000,-89.597663879,-0.029981356,-0.666085243,1.000000000,
1960,4.963483000,4.960464000,-0.081653066,-0.736168385,9.240430832,-3.568928719,2.707762957,-2.597599506,-1.000000000,-4.750000000,-4.562500000,-89.620285034,-0.030595975,-0.673652351,1.000000000,
1962,4.968538000,4.960464000,0.403676808,-0.261931449,9.912477493,-0.864596009,3.528140545,-4.207628250,-1.000000000,-4.687500000,-4.500000000,-89.637298584,-0.053882204,-0.694525540,1.000000000,
1964,4.973593000,4.960464000,0.046943229,0.240731806,10.424815178,0.806832612,-6.680225849,2.542482615,-1.000000000,-4.687500000,-4.500000000,-89.640563965,-0.052805025,-0.666723073,1.000000000,
1966,4.978648000,4.960464000,-0.517267823,0.600337029,10.675175667,4.261262417,-2.599402428,0.706782758,-1.000000000,-4.687500000,-4.500000000,-89.632705688,-0.041373815,-0.639993668,1.000000000,
1968,4.983703000,4.980684000,-0.774566948,0.471848577,10.067521095,3.257490635,6.348526955,-2.166528702,-1.000000000,-4.687500000,-4.500000000,-89.606330872,-0.051201452,-0.669483781,1.000000000,
1970,4.988758000,4.980684000,-0.537484348,-0.156646386,8.701931953,-1.381416202,-0.575746775,3.890736580,-1.000000000,-4.687500000,-4.500000000,-89.604972839,-0.039278965,-0.686157048,1.000000000,
1972,4.993813000,4.980684000,0.287129730,-0.342082828,8.292062759,-3.615363836,-0.825060844,1.905597568,-1.000000000,-4.687500000,-4.500000000,-89.618247986,-0.022625100,-0.690884411,1.000000000,
1974,4.998868000,4.980684000,0.783939779,0.201095596,9.316786766,-1.923752308,0.159016311,-7.701492786,-1.000000000,-4.687500000,-4.500000000,-89.634643555,-0.052534662,-0.679822683,1.000000000,
1975,5.001396000,4.980684000,0.465346456,0.496357620,9.790996552,1.534478664,2.303970337,-6.112782478,-1.000000000,-4.687500000,-4.500000000,-89.630424500,-0.068024315,-0.680176139,1.000000000,
1977,5.006451000,5.000904000,-0.785427928,0.648523986,9.838554382,2.932870626,-4.982396126,5.411690712,-1.000000000,-4.750000000,-4.562500000,-89.608711243,-0.056415461,-0.660528779,1.000000000,
1979,5.011506000,5.000904000,-1.133207798,0.322037578,9.340515137,-0.882215261,-0.103436813,5.769437313,-1.000000000,-4.750000000,-4.562500000,-89.603118896,-0.021328259,-0.655165851,1.000000000,
1981,5.016561000,5.000904000,-0.110386275,-0.044722822,9.245196342,-0.727041960,7.180170536,-5.823107243,-1.000000000,-4.750000000,-4.562500000,-89.600326538,-0.038762942,-0.693843067,1.000000000,
1982,5.019088000,5.000904000,0.286650211,-0.278156549,9.097453117,-2.808160305,5.337222099,-4.498762608,-1.000000000,-4.750000000,-4.562500000,-89.605628967,-0.049816046,-0.711525381,1.000000000,
1984,5.024143000,5.021124000,0.471224129,-0.387773365,9.104601860,-4.386597633,-7.703088284,3.449021101,-1.000000000,-4.750000000,-4.562500000,-89.629135132,-0.041883457,-0.691967130,1.000000000,
1986,5.029198000,5.021124000,0.242847353,0.279020101,10.310432434,-0.832546949,-0.116383173,-0.718237102,-1.000000000,-4.687500000,-4.500000000,-89.644927979,-0.036561374,-0.668689191,1.000000000,
1987,5.031726000,5.021124000,0.085886098,0.581376851,10.982427597,2.708312750,3.318196535,-5.509675980,-1.000000000,-4.687500000,-4.500000000,-89.636383057,-0.050231557,-0.672764242,1.000000000,
1989,5.036781000,5.021124000,-0.486832619,0.528633237,10.987344742,3.026205540,3.226767778,1.778074741,-1.000000000,-4.687500000,-4.500000000,-89.612670898,-0.057002172,-0.689468443,1.000000000,
1991,5.041836000,5.021124000,-0.468958169,-0.252753168,9.853054047,-0.758551002,-6.266167164,6.990895271,-1.000000000,-4.687500000,-4.500000000,-89.602584839,-0.023422876,-0.668985784,1.000000000,
1992,5.044363000,5.041344000,-0.118441731,-0.498016924,9.521821976,-2.149080515,-2.914043427,2.314446926,-1.000000000,-4.687500000,-4.500000000,-89.607902527,-0.017645365,-0.667699337,1.000000000,
1994,5.049418000,5.041344000,0.561014771,-0.390610009,9.750587463,-1.816294789,3.718052387,-9.347812653,-1.000000000,-4.750000000,-4.500000000,-89.622741699,-0.052876420,-0.678355336,1.000000000,
1996,5.054473000,5.041344000,-0.022851452,-0.030885376,9.917394638,-1.706355214,1.725248337,1.127926707,-1.000000000,-4.750000000,-4.500000000,-89.637153625,-0.065723129,-0.686129987,1.000000000,
1998,5.059528000,5.041344000,-0.687314332,0.369319409,10.255623817,0.482320100,-5.816927910,5.591799259,-1.000000000,-4.750000000,-4.500000000,-89.644577026,-0.037218157,-0.658033609,1.000000000,
2000,5.064583000,5.061564000,-0.162457347,0.660134852,10.703622818,4.931387424,4.758525372,-1.930429459,-1.000000000,-4.750000000,-4.500000000,-89.618492126,-0.036017742,-0.675125539,1.000000000,
2002,5.069638000,5.061564000,0.423270404,0.162417561,9.988782883,2.053355455,1.447398663,-2.229449511,-1.125000000,-4.750000000,-4.562500000,-89.597648621,-0.052647714,-0.689530909,1.000000000,
2004,5.074693000,5.061564000,0.244255468,-0.630921245,8.785386086,-2.120257854,-6.675928116,2.766830921,-1.125000000,-4.750000000,-4.562500000,-89.600845337,-0.041552983,-0.656285048,1.000000000,
2006,5.079748000,5.061564000,-0.152489081,-0.447639614,8.983273506,-2.680742025,0.258645833,-3.083417416,-1.125000000,-4.750000000,-4.562500000,-89.622955322,-0.047546439,-0.638646245,1.000000000,
2007,5.082276000,5.061564000,-0.427547514,-0.121409044,9.531353951,-2.044121265,5.692635536,-5.807151318,-1.125000000,-4.750000000,-4.562500000,-89.631774902,-0.062519193,-0.651324213,1.000000000,
2009,5.087331000,5.081784000,-0.994061768,0.540879130,10.258007050,0.811695158,2.675137281,1.663230538,-1.000000000,-4.750000000,-4.500000000,-89.637817383,-0.068359233,-0.680142581,1.000000000,
2011,5.092386000,5.081784000,-0.770938218,0.517090023,10.303283691,2.870620728,-3.427743912,7.725444317,-1.000000000,-4.750000000,-4.500000000,-89.623214722,-0.032977078,-0.678172290,1.000000000,
2013,5.097441000,5.081784000,0.457322598,0.191011369,10.084051132,2.729698658,-0.749419570,-2.948718548,-1.000000000,-4.750000000,-4.500000000,-89.605110168,-0.029716980,-0.677745759,1.000000000,
2015,5.102496000,5.081784000,0.875471115,-0.251922369,9.404907227,0.256291270,2.236565590,-5.422358513,-1.000000000,-4.750000000,-4.500000000,-89.599349976,-0.060923275,-0.680273831,1.000000000,
2017,5.107551000,5.102004000,-0.062093031,-0.540424049,8.866305351,-3.403318644,-4.249744415,2.659363508,-1.000000000,-4.812500000,-4.500000000,-89.615577698,-0.057720527,-0.656552970,1.000000000,
2019,5.112606000,5.102004000,-0.743530989,-0.035629809,9.607406616,-2.265104532,1.498296857,2.050162077,-1.000000000,-4.812500000,-4.500000000,-89.637573242,-0.040999651,-0.650028706,1.000000000,
2021,5.117661000,5.102004000,-0.501873851,0.614610314,10.870429039,2.071806192,5.565672398,-3.867431641,-1.000000000,-4.812500000,-4.500000000,-89.638038635,-0.058198109,-0.681087315,1.000000000,
2022,5.120188000,5.102004000,-0.302575022,0.662327290,10.941918373,4.495648384,3.501027346,-0.577002347,-1.000000000,-4.812500000,-4.500000000,-89.623641968,-0.059352949,-0.692385852,1.000000000,
2024,5.125243000,5.122224000,0.061978869,0.109790221,10.100730896,2.002989292,-7.899824142,5.524240017,-1.000000000,-4.812500000,-4.500000000,-89.601493835,-0.037776750,-0.668621600,1.000000000,
2026,5.130298000,5.122224000,0.469833702,-0.359370410,9.283526421,0.381612301,-0.199439391,-1.797251225,-1.062500000,-4.750000000,-4.500000000,-89.594161987,-0.032665264,-0.649296463,1.000000000,
2028,5.135353000,5.122224000,0.312751740,-0.411739230,9.040464401,-2.169612646,5.606454372,-6.343331814,-1.062500000,-4.750000000,-4.500000000,-89.607498169,-0.066282287,-0.665224373,1.000000000,
2030,5.140408000,5.122224000,-0.398758322,-0.347625881,9.092839241,-2.392361879,-1.294825792,4.481267452,-1.062500000,-4.750000000,-4.500000000,-89.627128601,-0.056763440,-0.664339125,1.000000000,
2032,5.145463000,5.142444000,-0.326817423,0.150194690,9.993598938,-0.199505374,-3.143979311,2.955213308,-1.062500000,-4.750000000,-4.500000000,-89.643142700,-0.033256691,-0.643818736,1.000000000,
2034,5.150518000,5.142444000,0.190607965,0.526704073,10.851264000,3.687555552,3.915038109,-6.250555515,-1.062500000,-4.812500000,-4.500000000,-89.633972168,-0.056666050,-0.649754882,1.000000000,
2036,5.155573000,5.142444000,-0.168012246,0.219426483,10.119692802,1.295389891,-3.735456467,0.319886059,-1.062500000,-4.812500000,-4.500000000,-89.620178223,-0.066903830,-0.635371506,1.000000000,
2038,5.160628000,5.142444000,-0.698645294,-0.214103580,9.040262222,-0.875209391,-2.039692879,6.694221973,-1.062500000,-4.812500000,-4.500000000,-89.616943359,-0.037403166,-0.624456584,1.000000000,
2039,5.163156000,5.142444000,-0.559938788,-0.240248486,8.985453606,-2.779207706,0.262376219,1.678358316,-1.062500000,-4.812500000,-4.500000000,-89.624359131,-0.033331234,-0.630300105,1.000000000,
2041,5.168211000,5.162664000,0.075698845,0.064878263,9.535867691,-2.004161835,8.697612762,-5.259025574,-1.000000000,-4.750000000,-4.437500000,-89.638992310,-0.056003448,-0.673471630,1.000000000,
