idx,imu_Timestamp[sec],mag_Timestamp[sec],accX[m/s^2],accY[m/s^2],accZ[m/s^2],gyroX[deg/s],gyroY[deg/s],gyroZ[deg/s],magX[uT],magY[uT],magZ[uT],orX[deg],orY[deg],orZ[deg],moving, 
50901,128.739776000,128.744747000,0.421975315,4.578613758,8.362328529,-75.544105530,-15.136753082,5.876623631,-1.062500000,-1.937500000,-4.375000000,-57.327896118,-1.484799147,-1.426223993,1.000000000,
50903,128.744836000,128.744747000,-0.322742343,5.169591904,8.476711273,-73.313270569,-6.670247078,3.633532524,-1.125000000,-2.000000000,-4.437500000,-57.708759308,-1.489360929,-1.355477452,1.000000000,
50905,128.749896000,128.744747000,-0.391392618,5.989158630,9.527597427,-66.251861572,13.256377220,-12.459785461,-1.125000000,-2.000000000,-4.437500000,-58.043399811,-1.508128285,-1.424528599,1.000000000,
50907,128.754956000,128.744747000,-0.790173829,5.658247471,8.459980011,-76.741500854,-5.027879238,7.067880154,-1.125000000,-2.000000000,-4.437500000,-58.413116455,-1.498577714,-1.427047491,1.000000000,
50909,128.760016000,128.764987000,-0.308442146,5.727302074,8.910359383,-72.613304138,-7.805823803,4.952714443,-1.125000000,-2.000000000,-4.437500000,-58.789482117,-1.491800547,-1.360439777,1.000000000,
50910,128.762546000,128.764987000,0.205797672,6.258517265,10.058947563,-66.079429626,2.403554201,-6.008235931,-1.125000000,-2.187500000,-4.437500000,-58.955631256,-1.501516581,-1.372289777,1.000000000,
50912,128.767606000,128.764987000,0.157030925,6.484649658,10.802280426,-61.315551758,2.600497484,-7.787209988,-1.125000000,-2.187500000,-4.437500000,-59.260688782,-1.536797285,-1.417644978,1.000000000,
50914,128.772666000,128.764987000,-1.172046661,5.319431782,8.760081291,-69.097618103,-12.724563599,12.898447990,-1.125000000,-2.187500000,-4.437500000,-59.594242096,-1.520488977,-1.356586933,1.000000000,
50916,128.777726000,128.764987000,-1.166341305,4.451888084,8.031046867,-62.054824829,2.707477093,1.235079288,-1.125000000,-2.187500000,-4.437500000,-59.919616699,-1.506191969,-1.327491760,1.000000000,
50917,128.780256000,128.785227000,-0.680119991,4.173127651,7.978621483,-62.019149780,11.228638649,-4.982840538,-1.125000000,-2.187500000,-4.437500000,-60.075134277,-1.502665043,-1.359273911,1.000000000,
50919,128.785316000,128.785227000,0.124188617,3.277588129,6.915719032,-74.011291504,-1.120768189,1.900654912,-1.125000000,-2.250000000,-4.500000000,-60.431835175,-1.503742576,-1.378681660,1.000000000,
50921,128.790376000,128.785227000,0.619842589,2.927317858,6.834697723,-73.994018555,-8.200295448,4.508236408,-1.125000000,-2.250000000,-4.500000000,-60.808593750,-1.494133949,-1.332849860,1.000000000,
50923,128.795436000,128.785227000,0.779898942,3.741821289,8.524219513,-66.960556030,1.647894740,-9.971999168,-1.125000000,-2.250000000,-4.500000000,-61.157112122,-1.529124498,-1.339704275,1.000000000,
50925,128.800496000,128.805467000,-0.388818830,4.108496189,8.674345016,-70.930564880,-1.780006886,-0.625152349,-1.125000000,-2.250000000,-4.500000000,-61.504726410,-1.544378161,-1.352972031,1.000000000,
50927,128.805556000,128.805467000,-1.415041924,4.151408672,8.140460968,-75.831748962,-4.920588970,8.284424782,-1.062500000,-2.312500000,-4.562500000,-61.882770538,-1.526202679,-1.308330774,1.000000000,
50929,128.810616000,128.805467000,-0.581057191,4.580367088,9.029305458,-68.649047852,6.914560318,-3.728316784,-1.062500000,-2.312500000,-4.562500000,-62.234649658,-1.518451095,-1.332097054,1.000000000,
50931,128.815676000,128.805467000,0.469750613,4.609214306,9.234291077,-74.033737183,0.059131924,-3.111630917,-1.062500000,-2.312500000,-4.562500000,-62.593658447,-1.532230496,-1.358957767,1.000000000,
50932,128.818206000,128.805467000,0.603305638,4.606950283,9.112759590,-76.425460815,-8.117250443,0.802895606,-1.062500000,-2.312500000,-4.562500000,-62.785633087,-1.539519548,-1.339049578,1.000000000,
50934,128.823266000,128.825707000,0.081576541,5.211775303,10.139816284,-69.399703979,-5.208636284,-2.318788052,-1.125000000,-2.437500000,-4.562500000,-63.148139954,-1.561766744,-1.301201224,1.000000000,
50936,128.828326000,128.825707000,-1.012931585,5.856927395,11.166873932,-60.599529266,4.304229259,-2.618841410,-1.125000000,-2.437500000,-4.562500000,-63.462100983,-1.570597649,-1.323626637,1.000000000,
50938,128.833386000,128.825707000,-1.482007742,5.075413227,9.949179649,-65.039222717,-1.996916175,10.707187653,-1.125000000,-2.437500000,-4.562500000,-63.778865814,-1.538648248,-1.309611678,1.000000000,
50940,128.838446000,128.825707000,-0.020669114,3.715315342,8.502772331,-65.845413208,-2.359271049,2.523022652,-1.125000000,-2.437500000,-4.562500000,-64.109550476,-1.514471412,-1.285709143,1.000000000,
50942,128.843506000,128.845947000,1.439576030,2.781631231,7.747372627,-68.812919617,0.500541270,-9.710333824,-1.125000000,-2.500000000,-4.562500000,-64.451492310,-1.551271439,-1.302773476,1.000000000,
50944,128.848566000,128.845947000,0.612599313,2.469288111,7.273113251,-74.100402832,-6.280414581,-0.076495953,-1.125000000,-2.500000000,-4.562500000,-64.818252563,-1.574703693,-1.287491560,1.000000000,
50946,128.853626000,128.845947000,-0.990850985,3.126271725,8.138127327,-71.126625061,-1.300444961,3.310743093,-1.125000000,-2.500000000,-4.562500000,-65.179718018,-1.565418482,-1.260521412,1.000000000,
50948,128.858686000,128.845947000,-1.100345135,3.757471800,9.169950485,-65.534843445,6.866456509,-0.472573698,-1.125000000,-2.500000000,-4.562500000,-65.512718201,-1.553420067,-1.286893010,1.000000000,
50949,128.861216000,128.866187000,-0.617070794,3.667134285,9.015057564,-68.096527100,3.472318888,0.862172067,-1.125000000,-2.500000000,-4.562500000,-65.683769226,-1.547915339,-1.294568181,1.000000000,
50951,128.866276000,128.866187000,0.612718821,3.031426907,8.185837746,-73.885696411,-7.282404900,0.562836647,-1.125000000,-2.625000000,-4.562500000,-66.055786133,-1.551702380,-1.267523289,1.000000000,
50953,128.871336000,128.866187000,0.882656932,3.172033548,8.469410896,-72.885383606,-2.750283241,-7.115485191,-1.125000000,-2.625000000,-4.562500000,-66.424057007,-1.583704710,-1.255371213,1.000000000,
50955,128.876396000,128.866187000,-0.493109226,4.010259628,9.332143784,-72.301116943,0.180681229,-3.268074274,-1.125000000,-2.625000000,-4.562500000,-66.791664124,-1.610224605,-1.262312412,1.000000000,
50957,128.881456000,128.886427000,-1.759577751,4.655547619,10.023203850,-71.132080078,1.249392033,7.959458351,-1.125000000,-2.625000000,-4.562500000,-67.146766663,-1.582060575,-1.260241389,1.000000000,
50959,128.886516000,128.886427000,-0.965398133,4.834272385,10.638057709,-66.212608337,0.636920989,1.287950635,-1.125000000,-2.750000000,-4.625000000,-67.484100342,-1.564462423,-1.257667303,1.000000000,
50961,128.891576000,128.886427000,0.475542665,4.219832897,10.304443359,-64.561462402,-2.260805607,-3.196047783,-1.125000000,-2.750000000,-4.625000000,-67.806350708,-1.578805566,-1.263542891,1.000000000,
50963,128.896636000,128.886427000,0.581616580,3.295470238,9.081983566,-69.160171509,-7.265540600,0.745688736,-1.125000000,-2.750000000,-4.625000000,-68.149230957,-1.591836214,-1.227306604,1.000000000,
50965,128.901696000,128.906667000,-0.357603073,3.097466946,8.679262161,-69.360923767,-1.113804579,-2.112100840,-1.125000000,-2.750000000,-4.625000000,-68.499443054,-1.600455403,-1.214272261,1.000000000,
50966,128.904226000,128.906667000,-0.838340282,3.168715239,8.860367775,-68.551551819,3.670957804,-2.584367037,-1.125000000,-2.812500000,-4.562500000,-68.671920776,-1.603109241,-1.225071430,1.000000000,
50968,128.909286000,128.906667000,-1.056734681,3.011303186,8.803176880,-67.422660828,3.013302326,5.166997433,-1.125000000,-2.812500000,-4.562500000,-69.010643005,-1.577792287,-1.244053125,1.000000000,
50970,128.914346000,128.906667000,0.040738642,2.615918398,8.774581909,-71.192611694,-4.247602463,3.120651245,-1.125000000,-2.812500000,-4.562500000,-69.367858887,-1.563589692,-1.217646360,1.000000000,
50972,128.919406000,128.906667000,1.185554743,2.466012239,9.088981628,-66.272644043,-1.902863145,-6.663402081,-1.125000000,-2.812500000,-4.562500000,-69.706779480,-1.586491227,-1.215348244,1.000000000,
50974,128.924466000,128.926907000,0.456400990,2.306326151,8.531367302,-73.096076965,-4.123133183,-1.509525776,-1.125000000,-2.875000000,-4.625000000,-70.064102173,-1.611984730,-1.204948664,1.000000000,
50976,128.929526000,128.926907000,-0.850076437,2.489410877,8.460029602,-75.218841553,-1.636222482,3.625969410,-1.125000000,-2.875000000,-4.625000000,-70.442054749,-1.604292512,-1.182845473,1.000000000,
50978,128.934586000,128.926907000,-0.889532685,3.211182117,9.591938019,-71.460891724,7.977615833,-1.317169428,-1.125000000,-2.875000000,-4.625000000,-70.805732727,-1.590895653,-1.214744687,1.000000000,
50980,128.939646000,128.926907000,-0.054417033,3.442404985,10.247201920,-68.963012695,-1.809683561,-1.142138958,-1.125000000,-2.875000000,-4.625000000,-71.157478333,-1.600892305,-1.223175168,1.000000000,
50982,128.944706000,128.947147000,0.528536975,3.416323900,10.356818199,-71.005020142,-9.416759491,1.856048703,-1.125000000,-3.000000000,-4.625000000,-71.513793945,-1.599629760,-1.179889441,1.000000000,
50983,128.947236000,128.947147000,0.539236546,3.583108902,10.564136505,-67.130424500,-6.113034248,-2.462935448,-1.125000000,-3.000000000,-4.625000000,-71.681846619,-1.610367417,-1.165861845,1.000000000,
50985,128.952296000,128.947147000,-0.231289402,3.494743824,10.335371971,-64.509117126,3.469956398,-4.692336559,-1.125000000,-3.000000000,-4.625000000,-72.002395630,-1.628292203,-1.183147073,1.000000000,
50987,128.957356000,128.947147000,-1.211146712,2.915894270,9.072097778,-70.260795593,-1.926607251,6.094333172,-1.125000000,-3.000000000,-4.625000000,-72.349449158,-1.614847422,-1.172406912,1.000000000,
50989,128.962416000,128.967387000,-0.823133528,2.627555609,9.029205322,-69.158706665,0.100058809,2.665110350,-1.125000000,-3.000000000,-4.625000000,-72.700317383,-1.590455055,-1.164317608,1.000000000,
50991,128.967476000,128.967387000,0.337843955,2.720466137,9.658559799,-65.901229858,2.743253469,-3.385714531,-1.062500000,-3.125000000,-4.625000000,-73.032363892,-1.602490067,-1.184294581,1.000000000,
50993,128.972536000,128.967387000,0.527905643,2.358298302,9.348774910,-68.317276001,-7.834161282,1.387666464,-1.062500000,-3.125000000,-4.625000000,-73.373146057,-1.612068057,-1.162161827,1.000000000,
50995,128.977596000,128.967387000,-0.030224182,2.053085327,8.948536873,-68.250198364,-3.426580667,1.420035720,-1.062500000,-3.125000000,-4.625000000,-73.717346191,-1.609784126,-1.130188584,1.000000000,
50997,128.982656000,128.987627000,-0.424169481,1.971974492,8.779347420,-68.442146301,4.117785931,-3.590404749,-1.062500000,-3.125000000,-4.625000000,-74.061920166,-1.618735075,-1.146385193,1.000000000,
50999,128.987716000,128.987627000,-0.610381365,1.688354850,8.467179298,-74.493865967,0.160423011,1.296589851,-1.125000000,-3.187500000,-4.625000000,-74.432472229,-1.616914511,-1.155069232,1.000000000,
51000,128.990246000,128.987627000,-0.455849499,1.821807265,8.681645393,-75.846832275,-3.500402451,3.870803595,-1.125000000,-3.187500000,-4.625000000,-74.622978210,-1.609640479,-1.144163609,1.000000000,
51002,128.995306000,128.987627000,0.149818093,2.322020292,9.896956444,-69.836380005,0.563453317,-2.085745573,-1.125000000,-3.187500000,-4.625000000,-74.981178284,-1.611111879,-1.138313293,1.000000000,
51004,129.000366000,128.987627000,0.299568444,2.681766987,10.564086914,-66.878028870,-1.647248149,-4.632913113,-1.125000000,-3.187500000,-4.625000000,-75.320236206,-1.633818746,-1.139650702,1.000000000,
51006,129.005426000,129.007867000,-0.386575043,2.426736832,9.982643127,-70.438102722,-5.004092693,3.909239292,-1.062500000,-3.312500000,-4.562500000,-75.669639587,-1.629728675,-1.113251686,1.000000000,
51008,129.010486000,129.007867000,-0.665750325,2.248012781,9.770407677,-69.208457947,0.589527190,0.738093495,-1.062500000,-3.312500000,-4.562500000,-76.019454956,-1.621037602,-1.102325797,1.000000000,
51010,129.015546000,129.007867000,-0.287579298,2.176673174,9.679854393,-69.105812073,3.874226332,-1.298988223,-1.062500000,-3.312500000,-4.562500000,-76.363746643,-1.623994470,-1.126825452,1.000000000,
51012,129.020606000,129.007867000,0.167178303,1.938444853,9.567905426,-71.354278564,-4.792962551,2.101940393,-1.062500000,-3.312500000,-4.562500000,-76.723640442,-1.622969866,-1.110815167,1.000000000,
51014,129.025666000,129.028107000,0.407291949,2.093199968,10.099307060,-67.416206360,-3.484018326,-1.590975523,-1.125000000,-3.375000000,-4.687500000,-77.069160461,-1.624912500,-1.091056824,1.000000000,
51016,129.030726000,129.028107000,0.082217559,2.238456726,10.261297226,-64.224594116,0.496993393,-2.801832199,-1.125000000,-3.375000000,-4.687500000,-77.397705078,-1.642570615,-1.087752342,1.000000000,
51017,129.033256000,129.028107000,-0.307843149,2.083532810,9.922917366,-66.393981934,-0.293297291,1.275643468,-1.125000000,-3.375000000,-4.687500000,-77.564109802,-1.639710069,-1.085047126,1.000000000,
51019,129.038316000,129.028107000,-0.698827565,1.485364676,8.955686569,-70.591377258,-5.092630386,3.551770687,-1.125000000,-3.375000000,-4.687500000,-77.914314270,-1.628221631,-1.057065010,1.000000000,
51021,129.043376000,129.048347000,-0.227369577,1.220947504,8.831772804,-70.061195374,3.533070087,-1.179464459,-1.125000000,-3.375000000,-4.687500000,-78.268081665,-1.623121500,-1.065248847,1.000000000,
51023,129.048436000,129.048347000,0.325609982,1.225795746,9.167618752,-72.000991821,-1.283097148,-2.933400154,-1.125000000,-3.562500000,-4.687500000,-78.629516602,-1.638579607,-1.067304969,1.000000000,
51025,129.053496000,129.048347000,0.303896517,1.432977319,9.587020874,-71.600410461,-5.188616753,1.502540112,-1.125000000,-3.562500000,-4.687500000,-78.989189148,-1.637786984,-1.047053456,1.000000000,
51027,129.058556000,129.048347000,-0.099516705,1.904440641,10.328222275,-70.017692566,-2.823719978,-1.775673866,-1.125000000,-3.562500000,-4.687500000,-79.342864990,-1.647158742,-1.023867011,1.000000000,
51029,129.063616000,129.068587000,-0.721881449,2.009043455,10.466433525,-67.008712769,0.131910160,-0.381335109,-1.125000000,-3.562500000,-4.687500000,-79.677925110,-1.655305266,-1.026973605,1.000000000,
51031,129.068676000,129.068587000,-0.914881647,1.570683360,9.784857750,-70.053482056,-2.391376257,5.937944889,-1.125000000,-3.625000000,-4.625000000,-80.027511597,-1.634575605,-1.012811065,1.000000000,
51033,129.073736000,129.068587000,-0.175072297,1.303986549,9.649027824,-70.037361145,-1.280452132,-1.039533019,-1.125000000,-3.625000000,-4.625000000,-80.380783081,-1.625997424,-1.006889343,1.000000000,
51034,129.076266000,129.068587000,0.240813211,1.294459343,9.887324333,-70.457542419,-0.403402448,-4.089890003,-1.125000000,-3.625000000,-4.625000000,-80.558052063,-1.636462212,-1.008013248,1.000000000,
51036,129.081326000,129.068587000,0.443215996,1.301639080,10.096873283,-68.321281433,-1.485217452,0.138459966,-1.125000000,-3.625000000,-4.625000000,-80.903121948,-1.643216610,-1.007704616,1.000000000,
51038,129.086386000,129.088827000,-0.053679232,1.265781999,9.946746826,-68.817329407,-6.660533428,2.002110481,-1.125000000,-3.687500000,-4.687500000,-81.247146606,-1.638393402,-0.973201454,1.000000000,
51040,129.091446000,129.088827000,-0.378060132,1.187074184,9.789471626,-66.001701355,-0.419558197,-1.138681531,-1.125000000,-3.687500000,-4.687500000,-81.583145142,-1.639916420,-0.961717844,1.000000000,
51042,129.096506000,129.088827000,-0.385822058,0.824978411,9.236623764,-70.693267822,1.639187932,1.505009890,-1.125000000,-3.687500000,-4.687500000,-81.930603027,-1.635813236,-0.969086051,1.000000000,
51044,129.101566000,129.088827000,-0.002177220,0.448610097,8.824420929,-72.564201355,-3.529693842,0.608776927,-1.125000000,-3.687500000,-4.687500000,-82.292289734,-1.632741451,-0.955179036,1.000000000,
51046,129.106626000,129.109067000,0.486884892,0.644021869,9.301013947,-72.196418762,-0.832055509,-1.705890059,-1.125000000,-3.812500000,-4.687500000,-82.654541016,-1.638244390,-0.946949184,1.000000000,
51048,129.111686000,129.109067000,0.274713010,0.996439576,9.956330299,-69.767677307,-2.709123135,-3.531204939,-1.125000000,-3.812500000,-4.687500000,-83.007934570,-1.658987045,-0.937240899,1.000000000,
51050,129.116746000,129.109067000,-0.464469284,1.146235108,10.208922386,-71.563575745,-3.299625158,1.886175156,-1.125000000,-3.812500000,-4.687500000,-83.364181519,-1.658000588,-0.918753386,1.000000000,
51051,129.119276000,129.109067000,-0.689234555,1.208089828,10.304241180,-69.877868652,-1.855494499,2.760426998,-1.125000000,-3.812500000,-4.687500000,-83.539085388,-1.651975870,-0.911897600,1.000000000,
51053,129.124336000,129.129307000,-0.554873347,1.131822824,10.332837105,-67.457946777,1.129139304,-0.573133230,-1.125000000,-3.812500000,-4.687500000,-83.874214172,-1.651250124,-0.917702079,1.000000000,
51055,129.129396000,129.129307000,-0.063871726,0.760267079,9.825417519,-71.821487427,-3.370686769,0.130922690,-1.125000000,-3.875000000,-4.687500000,-84.228691101,-1.654163599,-0.910075843,1.000000000,
51057,129.134456000,129.129307000,0.164429039,0.636295319,9.942183495,-70.364952087,-1.934183240,-0.838679671,-1.125000000,-3.875000000,-4.687500000,-84.588439941,-1.655806184,-0.895572484,1.000000000,
51059,129.139516000,129.129307000,-0.118047014,0.867223501,10.452035904,-67.004486084,-1.269144535,-2.543830872,-1.125000000,-3.875000000,-4.687500000,-84.928421021,-1.667682648,-0.891006231,1.000000000,
51061,129.144576000,129.149547000,-0.609867573,0.812262714,10.354333878,-67.921539307,-1.813310623,3.970460653,-1.125000000,-3.875000000,-4.687500000,-85.269989014,-1.656385183,-0.881049812,1.000000000,
51063,129.149636000,129.149547000,-0.462705731,0.516717076,10.080496788,-68.986885071,-2.130865097,2.216140985,-1.187500000,-4.000000000,-4.625000000,-85.611106873,-1.641405463,-0.869239390,1.000000000,
51065,129.154696000,129.149547000,0.139309302,0.188108265,9.723051071,-67.523826599,0.669816196,-1.114808917,-1.187500000,-4.000000000,-4.625000000,-85.950103760,-1.645786643,-0.872432947,1.000000000,
51066,129.157226000,129.149547000,0.317260206,-0.054832492,9.389435768,-68.303222656,-1.782643080,-0.966758192,-1.187500000,-4.000000000,-4.625000000,-86.121963501,-1.648349643,-0.868256688,1.000000000,
51068,129.162286000,129.149547000,0.243350953,-0.249958083,9.031588554,-71.217597961,-4.218775272,0.859424531,-1.187500000,-4.000000000,-4.625000000,-86.482849121,-1.646839619,-0.845342875,1.000000000,
51070,129.167346000,129.169787000,-0.037920985,-0.119089253,9.315160751,-69.883392334,0.331172407,-0.809349656,-1.062500000,-4.125000000,-4.625000000,-86.832443237,-1.650034189,-0.842581153,1.000000000,
51072,129.172406000,129.169787000,-0.186582819,0.106966652,9.734865189,-73.917236328,-0.376321495,-0.588935494,-1.062500000,-4.125000000,-4.625000000,-87.198837280,-1.655200005,-0.841739893,1.000000000,
51074,129.177466000,129.169787000,-0.055405997,0.437979579,10.509326935,-72.833030701,0.233764291,0.068473130,-1.062500000,-4.125000000,-4.625000000,-87.565063477,-1.655141592,-0.842784405,1.000000000,
51076,129.182526000,129.169787000,0.209189445,1.359701276,12.479937553,-75.928199768,-1.913749695,-3.873180151,-1.062500000,-4.125000000,-4.625000000,-87.943405151,-1.667822003,-0.830701947,1.000000000,
51078,129.187586000,129.190027000,0.041250981,2.981548548,15.570640564,-67.620338440,2.889320612,-4.802680016,-1.125000000,-4.250000000,-4.687500000,-88.292625427,-1.690257788,-0.842757225,1.000000000,
51080,129.192646000,129.190027000,-0.613401055,4.998729229,19.064165115,-65.022750854,-1.843856812,-1.669991016,-1.125000000,-4.250000000,-4.687500000,-88.621505737,-1.703939438,-0.836781442,1.000000000,
51082,129.197706000,129.190027000,-1.026304603,6.901632786,22.505161285,-42.608489990,2.707598448,-0.120773114,-1.125000000,-4.250000000,-4.687500000,-88.861206055,-1.705291986,-0.845675707,1.000000000,
51084,129.202766000,129.190027000,-0.955754101,7.596953869,24.037458420,-30.672098160,-2.432093382,1.407803893,-1.125000000,-4.250000000,-4.687500000,-89.021232605,-1.703308702,-0.843652308,1.000000000,
51085,129.205296000,129.210267000,-0.750673413,7.387318611,23.846820831,-25.824609756,-4.253161907,2.099525213,-1.125000000,-4.250000000,-4.687500000,-89.083282471,-1.698332429,-0.832967281,1.000000000,
51087,129.210356000,129.210267000,-0.313992083,6.746562481,23.048530579,-15.775217056,-1.139283180,-0.648880959,-1.125000000,-4.312500000,-4.625000000,-89.170875549,-1.696960568,-0.822537541,1.000000000,
51089,129.215416000,129.210267000,-0.318582416,5.822205544,21.747432709,-4.379341125,2.028728247,-0.517335236,-1.125000000,-4.312500000,-4.625000000,-89.192878723,-1.704847574,-0.830933750,1.000000000,
51091,129.220476000,129.210267000,-0.515573740,4.881402969,19.872091293,1.577769041,-4.343000889,3.912909985,-1.125000000,-4.312500000,-4.625000000,-89.188934326,-1.688930273,-0.819308579,1.000000000,
51093,129.225536000,129.230507000,-0.253664613,3.781177282,17.767934799,14.679386139,1.275627851,3.861570835,-1.125000000,-4.312500000,-4.625000000,-89.122566223,-1.670675993,-0.816118300,1.000000000,
51095,129.230596000,129.230507000,0.322416186,2.002418280,14.376725197,17.180419922,-5.308735371,1.135827899,-1.187500000,-4.375000000,-4.625000000,-89.033035278,-1.659477472,-0.799707532,1.000000000,
51097,129.235656000,129.230507000,0.609861076,-0.217027307,9.887222290,11.478629112,-2.477126598,4.242347240,-1.187500000,-4.375000000,-4.625000000,-88.960838318,-1.640395164,-0.779594779,1.000000000,
51099,129.240716000,129.230507000,0.542011261,-1.877080679,6.617949486,4.262312889,-1.226208925,-2.604373455,-1.187500000,-4.375000000,-4.625000000,-88.939468384,-1.646121264,-0.764872372,1.000000000,
51101,129.245776000,129.250747000,-0.068061985,-2.555899858,5.028512955,0.281785309,2.766342163,-0.829899788,-1.187500000,-4.375000000,-4.625000000,-88.938179016,-1.654835224,-0.781460226,1.000000000,
51102,129.248306000,129.250747000,-0.375858903,-2.718032360,4.835493088,-4.794800758,-1.830114603,0.322974414,-1.125000000,-4.437500000,-4.562500000,-88.954452515,-1.654276252,-0.776364684,1.000000000,
51104,129.253366000,129.250747000,-0.509048879,-2.048696518,5.919690132,-9.637274742,2.283224583,2.550204754,-1.125000000,-4.437500000,-4.562500000,-89.007408142,-1.638850808,-0.778825581,1.000000000,
51106,129.258426000,129.250747000,-0.075381808,-0.624274790,8.576694489,-6.831275463,3.721487045,-6.342356682,-1.125000000,-4.437500000,-4.562500000,-89.053901672,-1.662996769,-0.794582009,1.000000000,
51108,129.263486000,129.250747000,-0.156827167,0.421385527,10.371015549,-5.483250618,-0.179119349,0.022734297,-1.125000000,-4.437500000,-4.562500000,-89.083343506,-1.673151731,-0.802048862,1.000000000,
51110,129.268546000,129.270987000,-0.539414644,1.143078685,11.424284935,-5.713463306,-5.164776325,1.560284734,-1.125000000,-4.437500000,-4.625000000,-89.107971191,-1.666341662,-0.771214962,1.000000000,
51112,129.273606000,129.270987000,-0.772996485,1.714493155,12.549194336,2.666599274,4.886278629,-4.532592297,-1.125000000,-4.437500000,-4.625000000,-89.096984863,-1.680441141,-0.788149714,1.000000000,
51114,129.278666000,129.270987000,-0.980585337,1.628745079,12.272771835,2.589458466,0.760259748,2.759596109,-1.125000000,-4.437500000,-4.625000000,-89.075096130,-1.678297162,-0.801058352,1.000000000,
51115,129.281196000,129.270987000,-0.901431322,1.388212085,11.839072227,1.431257725,-2.514483690,6.707085609,-1.125000000,-4.437500000,-4.625000000,-89.067855835,-1.661608696,-0.795761168,1.000000000,
51117,129.286256000,129.291227000,-0.073265292,1.024087906,11.198055267,6.274421215,-1.431673765,1.042003036,-1.125000000,-4.437500000,-4.625000000,-89.035514832,-1.645418882,-0.785804927,1.000000000,
51119,129.291316000,129.291227000,0.557211041,0.540926278,10.349467278,7.958103657,1.887397528,-4.038643360,-1.187500000,-4.375000000,-4.687500000,-88.989540100,-1.663902998,-0.797115147,1.000000000,
51121,129.296376000,129.291227000,0.182551444,-0.164095238,8.862498283,2.083118916,-5.118449688,3.809754372,-1.187500000,-4.375000000,-4.687500000,-88.970764160,-1.653838396,-0.770975292,1.000000000,
51123,129.301436000,129.291227000,-0.074148536,-0.514442086,8.362177849,5.706043243,1.739022374,3.351561785,-1.187500000,-4.375000000,-4.687500000,-88.957641602,-1.632000327,-0.764427125,1.000000000,
51125,129.306496000,129.311467000,0.374255925,-1.153045774,7.961839199,3.968027592,4.892462254,-0.254518658,-1.187500000,-4.375000000,-4.687500000,-88.937126160,-1.631816864,-0.788759351,1.000000000,
51127,129.311556000,129.311467000,0.983689904,-2.027334452,6.739732265,-7.205077171,-5.289064407,1.804883242,-1.125000000,-4.375000000,-4.562500000,-88.964385986,-1.624818087,-0.773782611,1.000000000,
51129,129.316616000,129.311467000,1.087467909,-1.760594487,7.321175575,-10.684485435,-0.222272322,-5.543860435,-1.125000000,-4.375000000,-4.562500000,-89.025878906,-1.641903162,-0.757008672,1.000000000,
51131,129.321676000,129.311467000,0.071822762,-0.374554157,9.653894424,-7.050429821,5.350594997,-7.508354664,-1.125000000,-4.375000000,-4.562500000,-89.069885254,-1.681959152,-0.777386427,1.000000000,
51133,129.326736000,129.331707000,-1.340987921,1.020972133,11.655583382,-5.312083721,-0.767625928,4.864086628,-1.125000000,-4.375000000,-4.562500000,-89.100616455,-1.671653152,-0.780226350,1.000000000,
51134,129.329266000,129.331707000,-1.539526224,1.552038670,12.618299484,-1.773765087,-2.405972481,6.101178169,-1.187500000,-4.375000000,-4.625000000,-89.102005005,-1.656479478,-0.777212739,1.000000000,
51136,129.334326000,129.331707000,-0.711975098,2.002395153,13.650074959,8.148181915,3.488456726,-0.535217345,-1.187500000,-4.375000000,-4.625000000,-89.065452576,-1.649870038,-0.792385340,1.000000000,
51138,129.339386000,129.331707000,0.193655953,1.121339798,12.260806084,6.898318768,-2.918211460,-1.869008541,-1.187500000,-4.375000000,-4.625000000,-89.019683838,-1.661649108,-0.791730642,1.000000000,
51140,129.344441000,129.331707000,0.048651688,0.021174971,9.803971291,0.896063864,-6.521721363,2.010958195,-1.187500000,-4.375000000,-4.625000000,-89.003349304,-1.652044773,-0.765406847,1.000000000,
51142,129.349496000,129.351940000,-0.610396564,-0.112060435,8.912742615,2.952983856,3.621631861,-2.736856937,-1.125000000,-4.375000000,-4.625000000,-88.996925354,-1.660318017,-0.776576161,1.000000000,
51144,129.354551000,129.351940000,-1.153092742,0.019048132,8.717238426,2.846593857,3.385705948,1.307421446,-1.125000000,-4.375000000,-4.625000000,-88.982772827,-1.662162662,-0.811182797,1.000000000,
51146,129.359606000,129.351940000,-0.718824625,-0.161793932,8.362177849,1.832524776,-3.214215517,8.004265785,-1.125000000,-4.375000000,-4.625000000,-88.974632263,-1.627994895,-0.809538722,1.000000000,
51148,129.364661000,129.351940000,0.661516666,-0.545235634,8.340882301,2.954978466,-0.579113543,-1.963136435,-1.125000000,-4.375000000,-4.625000000,-88.966720581,-1.623007536,-0.807219088,1.000000000,
51149,129.367189000,129.372160000,1.125311494,-0.804834783,8.128797531,1.274502158,1.052894354,-5.561327934,-1.125000000,-4.375000000,-4.625000000,-88.967376709,-1.637294769,-0.808188498,1.000000000,
51151,129.372244000,129.372160000,0.771691680,-1.286141396,7.440020561,-7.897561073,-2.603811502,-1.754154682,-1.187500000,-4.437500000,-4.625000000,-89.002288818,-1.655209303,-0.798272789,1.000000000,
51153,129.377299000,129.372160000,-0.240485281,-0.798156381,8.178739548,-10.544140816,1.053035617,1.793769956,-1.187500000,-4.437500000,-4.625000000,-89.060806274,-1.647611260,-0.790413797,1.000000000,
51155,129.382354000,129.372160000,-0.394770205,0.528381228,10.687999725,-3.583634615,7.948853016,-2.401871681,-1.187500000,-4.437500000,-4.625000000,-89.094985962,-1.655057788,-0.817722738,1.000000000,
51157,129.387409000,129.392380000,0.110698745,1.245218396,12.434710503,-0.239108354,-0.704226851,1.266321659,-1.187500000,-4.437500000,-4.625000000,-89.093849182,-1.654465795,-0.821068585,1.000000000,
51159,129.392464000,129.392380000,0.630208731,1.242745399,12.773243904,3.550259352,-7.267310143,1.509842992,-1.125000000,-4.375000000,-4.625000000,-89.075782776,-1.642959952,-0.782223523,1.000000000,
51161,129.397519000,129.392380000,0.401796490,0.878203630,12.189417839,6.962397099,0.065563589,-4.683804989,-1.125000000,-4.375000000,-4.625000000,-89.038116455,-1.660342574,-0.767904639,1.000000000,
51163,129.402574000,129.392380000,-0.700617254,0.137425974,10.413908958,2.449128151,0.411304861,0.910351217,-1.125000000,-4.375000000,-4.625000000,-89.011260986,-1.666964293,-0.765533328,1.000000000,
51165,129.407629000,129.412600000,-1.206563115,-0.307807833,9.024641037,-0.160006553,0.171920449,5.712222099,-1.125000000,-4.375000000,-4.625000000,-89.015876770,-1.639696598,-0.773254573,1.000000000,
51167,129.412684000,129.412600000,-0.343254089,-0.219431400,9.117777824,4.193562984,4.223388195,-1.455453992,-1.125000000,-4.437500000,-4.562500000,-89.006179810,-1.638451457,-0.796555817,1.000000000,
51169,129.417739000,129.412600000,0.474950850,-0.397803187,8.853269577,3.914051533,-3.134476662,-1.379628062,-1.125000000,-4.437500000,-4.562500000,-88.990646362,-1.647727966,-0.799038947,1.000000000,
51171,129.422794000,129.412600000,0.275778025,-0.819274127,7.918996811,-0.600710332,-6.608949184,1.839311004,-1.125000000,-4.437500000,-4.562500000,-88.996200562,-1.641029596,-0.763529897,1.000000000,
51172,129.425321000,129.412600000,-0.055882160,-0.866978526,7.745039463,-2.262624264,-2.914683342,-0.331138074,-1.125000000,-4.437500000,-4.562500000,-89.005836487,-1.642155170,-0.755944133,1.000000000,
51174,129.430376000,129.432820000,-0.781222403,-0.686122417,7.897549629,-4.491689205,7.155428886,-3.330660105,-1.125000000,-4.375000000,-4.625000000,-89.033004761,-1.658737183,-0.781201839,1.000000000,
51176,129.435431000,129.432820000,-0.990975678,-0.305167586,8.550632477,-9.306366920,2.031221628,2.753206491,-1.125000000,-4.375000000,-4.625000000,-89.080360413,-1.651807666,-0.806261003,1.000000000,
51178,129.440486000,129.432820000,-0.163752899,0.614387810,10.411726952,-4.839422703,0.391704202,1.396273017,-1.125000000,-4.375000000,-4.625000000,-89.117500305,-1.638614416,-0.814691305,1.000000000,
51180,129.445541000,129.432820000,0.702470005,1.469557047,12.399019241,3.638963461,0.017528083,-5.142540932,-1.125000000,-4.375000000,-4.625000000,-89.102653503,-1.658715367,-0.820121944,1.000000000,
51182,129.450596000,129.453040000,0.327441365,1.300260663,12.182168007,4.304874420,-4.727362633,1.839248300,-1.125000000,-4.437500000,-4.687500000,-89.071624756,-1.661051393,-0.799131513,1.000000000,
51184,129.455651000,129.453040000,-0.391557008,0.604542375,10.835844040,2.594050407,-2.417194605,3.637051105,-1.125000000,-4.437500000,-4.687500000,-89.050369263,-1.641803026,-0.775110960,1.000000000,
51186,129.460706000,129.453040000,-0.336569488,0.020941589,9.918403625,2.399649143,6.716084003,-1.826992631,-1.125000000,-4.437500000,-4.687500000,-89.031211853,-1.643965125,-0.795021832,1.000000000,
51188,129.465761000,129.453040000,0.167830959,-0.390937239,9.236825943,-0.423566490,-0.169216812,0.709528625,-1.125000000,-4.437500000,-4.687500000,-89.036308289,-1.645475864,-0.801228046,1.000000000,
51189,129.468289000,129.473260000,0.397504568,-0.448034257,9.162953377,-0.710194647,-3.728036880,2.356875658,-1.125000000,-4.437500000,-4.687500000,-89.041618347,-1.639939785,-0.790025294,1.000000000,
51191,129.473344000,129.473260000,0.603469551,-0.214444771,9.591685295,4.390229702,-3.102095842,-1.530695438,-1.187500000,-4.375000000,-4.562500000,-89.033752441,-1.640074968,-0.765067399,1.000000000,
51193,129.478399000,129.473260000,0.076983787,-0.338441432,9.286665916,4.722374916,0.967319667,-1.802188754,-1.187500000,-4.375000000,-4.562500000,-89.012908936,-1.653666496,-0.760352910,1.000000000,
51195,129.483454000,129.473260000,-0.627753913,-1.024677157,7.911897659,-4.279315948,-1.843084693,3.771908045,-1.187500000,-4.375000000,-4.562500000,-89.029357910,-1.640063405,-0.751148283,1.000000000,
51197,129.488509000,129.493480000,-0.410075992,-1.081777334,7.835642815,-7.396045685,4.272339344,-0.588156641,-1.187500000,-4.375000000,-4.562500000,-89.073425293,-1.633215070,-0.762341499,1.000000000,
51199,129.493564000,129.493480000,0.173569828,-0.274231017,9.410832405,-6.434029102,4.363671303,-5.650943279,-1.125000000,-4.375000000,-4.625000000,-89.113983154,-1.659012079,-0.788353503,1.000000000,
51201,129.498619000,129.493480000,0.005168743,0.769063771,11.076523781,-3.119965792,-4.602986336,0.780466795,-1.125000000,-4.375000000,-4.625000000,-89.141296387,-1.663913608,-0.773663104,1.000000000,
51202,129.501146000,129.493480000,-0.283334911,1.221556544,11.798562050,0.208297744,-5.960002422,1.903657436,-1.125000000,-4.375000000,-4.625000000,-89.139709473,-1.659293771,-0.753726065,1.000000000,
51204,129.506201000,129.493480000,-0.761767507,1.647843242,12.410932541,7.728434086,1.220637679,-0.326995313,-1.125000000,-4.375000000,-4.625000000,-89.102584839,-1.657037973,-0.751153409,1.000000000,
51206,129.511256000,129.513700000,-0.874970973,0.852286458,10.966856956,4.644096851,1.635258317,1.897786021,-1.187500000,-4.375000000,-4.625000000,-89.066383362,-1.652850747,-0.769028783,1.000000000,
51208,129.516311000,129.513700000,-0.360553533,-0.240814626,9.022409439,-2.399547815,-1.843619585,3.434337616,-1.187500000,-4.375000000,-4.625000000,-89.069000244,-1.634469628,-0.772170782,1.000000000,
51210,129.521366000,129.513700000,0.460892588,-0.311982840,8.915175438,-0.348143637,2.338291168,-3.748790741,-1.187500000,-4.375000000,-4.625000000,-89.082206726,-1.644406438,-0.782437027,1.000000000,
51212,129.526421000,129.513700000,0.445175081,0.071509711,9.558576584,2.505466938,-0.296842903,-2.105476379,-1.187500000,-4.375000000,-4.625000000,-89.078987122,-1.662458420,-0.783560276,1.000000000,
51214,129.531476000,129.533920000,-0.182942569,0.126145244,9.518065453,3.116712809,-4.860898972,5.325542927,-1.125000000,-4.375000000,-4.562500000,-89.068023682,-1.642323494,-0.753502965,1.000000000,
51215,129.534004000,129.533920000,-0.291768581,-0.023901975,9.343907356,3.674239635,-2.642156601,4.074251175,-1.125000000,-4.375000000,-4.562500000,-89.061325073,-1.632361293,-0.742865622,1.000000000,
51217,129.539059000,129.533920000,0.058789846,-0.652785301,8.574210167,0.690190077,3.989863634,-1.915907621,-1.125000000,-4.375000000,-4.562500000,-89.058341980,-1.634820700,-0.753714323,1.000000000,
51219,129.544114000,129.533920000,0.449843168,-1.298390508,7.752239704,-8.365011215,0.525900424,-1.201355219,-1.125000000,-4.375000000,-4.562500000,-89.097808838,-1.644243836,-0.760710239,1.000000000,
51221,129.549169000,129.554140000,0.428919435,-0.800669849,8.764999390,-9.595890999,-0.522442460,-1.536835551,-1.125000000,-4.375000000,-4.562500000,-89.155525208,-1.648663998,-0.754201472,1.000000000,
51223,129.554224000,129.554140000,-0.000780884,0.673527002,11.305336952,-0.705449045,3.115021467,-3.735814810,-1.125000000,-4.375000000,-4.562500000,-89.178337097,-1.666848540,-0.761427104,1.000000000,
51225,129.559279000,129.554140000,-0.629063070,1.452228308,12.573074341,3.872108221,-1.665449381,2.837291241,-1.125000000,-4.375000000,-4.562500000,-89.169769287,-1.662570119,-0.756627917,1.000000000,
51227,129.564334000,129.554140000,-0.603817284,1.085558295,11.929422379,4.784959793,-3.085627317,4.567798615,-1.125000000,-4.375000000,-4.562500000,-89.152076721,-1.638039708,-0.740901351,1.000000000,
51229,129.569389000,129.574360000,0.011739813,0.233019397,10.523473740,3.844725132,1.945909977,-2.944077969,-1.125000000,-4.375000000,-4.562500000,-89.126037598,-1.643788815,-0.752904356,1.000000000,
51231,129.574444000,129.574360000,0.073709898,-0.457709730,9.110629082,-1.918522239,-0.317430526,-2.081626177,-1.125000000,-4.375000000,-4.687500000,-89.135665894,-1.659653544,-0.757598698,1.000000000,
51233,129.579499000,129.574360000,-0.430490226,-0.233663410,8.939055443,-1.253624916,-2.072278261,1.609635949,-1.125000000,-4.375000000,-4.687500000,-89.153877258,-1.653493166,-0.747752845,1.000000000,
51234,129.582026000,129.574360000,-0.614914179,0.123644441,9.406117439,1.996900439,0.199111313,0.552807748,-1.125000000,-4.375000000,-4.687500000,-89.152626038,-1.652489543,-0.749968469,1.000000000,
51236,129.587081000,129.574360000,-0.607712865,0.507309556,9.858778954,6.817550659,2.199843168,1.001195788,-1.125000000,-4.375000000,-4.687500000,-89.124298096,-1.649642825,-0.771332860,1.000000000,
51238,129.592136000,129.594580000,-0.194328323,-0.221486017,8.738786697,1.933383942,-3.593900442,3.534683228,-1.187500000,-4.375000000,-4.625000000,-89.107597351,-1.635168672,-0.769163668,1.000000000,
51240,129.597191000,129.594580000,0.398901045,-1.028910875,7.637857437,-4.006470680,-1.343909740,-1.489672661,-1.187500000,-4.375000000,-4.625000000,-89.128593445,-1.632687926,-0.759098232,1.000000000,
51242,129.602246000,129.594580000,0.402922779,-0.950405002,7.940494061,-7.448796272,4.395393372,-5.496194839,-1.187500000,-4.375000000,-4.625000000,-89.170234680,-1.658992290,-0.774365425,1.000000000,
51244,129.607301000,129.594580000,-0.288966119,-0.086011879,9.413165092,-7.508179665,0.687595546,0.611502111,-1.187500000,-4.375000000,-4.625000000,-89.217124939,-1.664456964,-0.783064127,1.000000000,
51246,129.612356000,129.614800000,-0.493370414,1.078613281,11.514938354,-0.096638069,0.450850546,3.216202974,-1.125000000,-4.375000000,-4.625000000,-89.236541748,-1.648527741,-0.781768560,1.000000000,
51248,129.617411000,129.614800000,0.099512875,1.452637434,12.589452744,6.614832401,0.361255050,-0.868837059,-1.125000000,-4.375000000,-4.625000000,-89.210868835,-1.648754001,-0.780538678,1.000000000,
51250,129.622466000,129.614800000,0.466799706,0.595132768,11.364610672,3.453837156,-3.900553226,0.456882834,-1.125000000,-4.375000000,-4.625000000,-89.182632446,-1.648685694,-0.759070218,1.000000000,
51251,129.624994000,129.614800000,0.416295111,0.061471671,10.430690765,0.438761026,-4.768783092,0.937240839,-1.125000000,-4.375000000,-4.625000000,-89.180534363,-1.646694899,-0.741790891,1.000000000,
51253,129.630049000,129.635020000,-0.008439977,-0.414963096,9.436994553,-1.140147686,2.011823177,-2.290979624,-1.125000000,-4.375000000,-4.625000000,-89.190757751,-1.653739810,-0.733457327,1.000000000,
51255,129.635104000,129.635020000,-0.525340736,-0.136217609,9.582255363,0.552614629,4.132005692,-0.841832340,-1.125000000,-4.375000000,-4.625000000,-89.197692871,-1.663130879,-0.751497030,1.000000000,
51257,129.640159000,129.635020000,-0.542798519,0.187857553,9.901572227,2.154987574,-1.867079020,4.450634956,-1.125000000,-4.375000000,-4.625000000,-89.197143555,-1.645784497,-0.750620842,1.000000000,
51259,129.645214000,129.635020000,0.154552042,0.166681886,9.894371986,5.968218803,-2.106747150,0.498370796,-1.125000000,-4.375000000,-4.625000000,-89.178863525,-1.635345817,-0.739983499,1.000000000,
51261,129.650269000,129.655240000,0.489374638,-0.476363808,8.872080803,2.430072546,-0.962878585,-3.423947096,-1.125000000,-4.375000000,-4.625000000,-89.166633606,-1.650929093,-0.729638875,1.000000000,
51263,129.655324000,129.655240000,-0.140770480,-1.114820838,7.561451435,-6.622969627,-2.006876230,-0.056487039,-1.125000000,-4.437500000,-4.625000000,-89.195945740,-1.655481458,-0.717612803,1.000000000,
51265,129.660379000,129.655240000,-0.792166412,-0.679038942,8.095233917,-7.663692474,4.302490711,-0.437550336,-1.125000000,-4.437500000,-4.625000000,-89.243667603,-1.655940175,-0.729548693,1.000000000,
51266,129.662906000,129.655240000,-0.849307299,-0.143152520,9.057950974,-5.550237179,6.453542709,-1.579158425,-1.125000000,-4.437500000,-4.625000000,-89.261116028,-1.659401774,-0.747226655,1.000000000,
51268,129.667961000,129.655240000,-0.474938899,0.881016374,10.926446915,-1.043270946,1.440194964,1.211883903,-1.125000000,-4.437500000,-4.625000000,-89.278358459,-1.659069777,-0.768870890,1.000000000,
51270,129.673016000,129.675460000,0.167205423,1.212160110,11.793846130,2.544652462,-5.473480225,2.254932404,-1.187500000,-4.375000000,-4.625000000,-89.275398254,-1.646800995,-0.754119813,1.000000000,
51272,129.678071000,129.675460000,0.407557786,0.912032306,11.479244232,5.340878010,-1.542600751,-2.346890450,-1.187500000,-4.375000000,-4.625000000,-89.254432678,-1.653187871,-0.738951564,1.000000000,
51274,129.683126000,129.675460000,-0.175231844,0.144901380,10.061381340,1.147913694,0.557058394,-0.598077536,-1.187500000,-4.375000000,-4.625000000,-89.239219666,-1.661751032,-0.731357276,1.000000000,
51276,129.688181000,129.675460000,-0.674396455,-0.326678991,9.050803185,-2.993572474,0.827971399,3.445575714,-1.187500000,-4.375000000,-4.625000000,-89.258224487,-1.647367120,-0.735521019,1.000000000,
51278,129.693236000,129.695680000,-0.197099656,-0.050227810,9.567905426,1.248284578,3.498970747,0.008364674,-1.125000000,-4.375000000,-4.625000000,-89.266761780,-1.642199874,-0.753772259,1.000000000,
51280,129.698291000,129.695680000,0.512866318,0.149937764,10.118471146,3.952040911,-1.215712905,-0.876592398,-1.125000000,-4.375000000,-4.625000000,-89.255874634,-1.648430705,-0.755747974,1.000000000,
51282,129.703346000,129.695680000,0.557956874,-0.174003288,9.589453697,2.683771372,-6.114994526,1.411790848,-1.125000000,-4.375000000,-4.625000000,-89.243873596,-1.642661095,-0.720069945,1.000000000,
51283,129.705874000,129.695680000,0.354368776,-0.421773493,9.167618752,1.448850393,-3.986516476,0.258336514,-1.125000000,-4.375000000,-4.625000000,-89.243164062,-1.642522097,-0.706392765,1.000000000,
51285,129.710929000,129.715900000,-0.222172558,-0.776835382,8.467028618,-1.914383411,3.876241207,-2.260390043,-1.125000000,-4.375000000,-4.625000000,-89.254447937,-1.651752472,-0.712825119,1.000000000,
51287,129.715984000,129.715900000,-0.570260823,-0.774464071,8.362076759,-7.022668839,3.290475368,0.943219244,-1.187500000,-4.375000000,-4.687500000,-89.291458130,-1.652637839,-0.730866432,1.000000000,
51289,129.721039000,129.715900000,-0.203942657,-0.097930871,9.634578705,-5.385557652,0.495610744,0.686390460,-1.187500000,-4.375000000,-4.687500000,-89.330657959,-1.646262527,-0.735865355,1.000000000,
51291,129.726094000,129.715900000,0.335265309,0.854849935,11.407704353,1.928875566,-0.036720578,-2.931895018,-1.187500000,-4.375000000,-4.687500000,-89.337760925,-1.657653809,-0.734760880,1.000000000,
51293,129.731149000,129.736120000,0.058799315,1.069170952,11.693660736,3.865597248,-4.111489296,-0.173175097,-1.187500000,-4.375000000,-4.687500000,-89.323661804,-1.664277315,-0.711971462,1.000000000,
51295,129.736204000,129.736120000,-0.651333034,0.621242762,10.659504890,2.343473673,-1.968032122,2.513976574,-1.187500000,-4.375000000,-4.625000000,-89.307388306,-1.652683020,-0.687421203,1.000000000,
51297,129.741259000,129.736120000,-0.805243433,0.144905001,9.668192863,0.828840256,4.620652199,-0.270943224,-1.187500000,-4.375000000,-4.625000000,-89.299125671,-1.649881721,-0.713312805,1.000000000,
51299,129.746314000,129.736120000,-0.350097120,-0.121689618,9.184451103,-1.558325887,1.978049040,0.508096874,-1.187500000,-4.375000000,-4.625000000,-89.305809021,-1.649795532,-0.740176082,1.000000000,
51301,129.751369000,129.756340000,0.221744284,0.026186662,9.456108093,0.380076885,-3.028333426,0.783694744,-1.187500000,-4.375000000,-4.625000000,-89.311843872,-1.644726992,-0.738762677,1.000000000,
51303,129.756424000,129.756340000,0.360773027,0.269295156,9.918150902,4.989459038,-1.519045234,-1.630565524,-1.125000000,-4.375000000,-4.625000000,-89.297920227,-1.650697827,-0.726667762,1.000000000,
51304,129.758951000,129.756340000,0.160923958,0.171567425,9.744194984,5.114827156,-0.935128987,-1.176606417,-1.125000000,-4.375000000,-4.625000000,-89.286064148,-1.653892159,-0.719094515,1.000000000,
51306,129.764006000,129.756340000,-0.391507328,-0.466974229,8.624201775,-0.552328050,-1.001324177,2.781407833,-1.125000000,-4.375000000,-4.625000000,-89.287216187,-1.646254420,-0.709886730,1.000000000,
51308,129.769061000,129.756340000,-0.324994504,-0.912615001,8.057309151,-5.710140705,2.544083595,0.747057438,-1.125000000,-4.375000000,-4.625000000,-89.317642212,-1.636566162,-0.717635989,1.000000000,
51310,129.774116000,129.776560000,0.254967093,-0.581508040,8.948536873,-5.720465183,4.580780029,-3.271117926,-1.187500000,-4.437500000,-4.625000000,-89.355163574,-1.649751067,-0.740803421,1.000000000,
51312,129.779171000,129.776560000,0.416385889,0.190240547,10.449704170,-3.463248491,-2.035341263,-0.907293975,-1.187500000,-4.437500000,-4.625000000,-89.383682251,-1.659322977,-0.737381935,1.000000000,
51314,129.784226000,129.776560000,0.068450756,0.938052952,11.707908630,2.352778673,-3.219434023,0.799943745,-1.187500000,-4.437500000,-4.625000000,-89.387039185,-1.655213594,-0.714404345,1.000000000,
51316,129.789281000,129.776560000,-0.345836341,0.992682576,11.765149117,5.666697979,0.758123875,-0.173517913,-1.187500000,-4.437500000,-4.625000000,-89.360832214,-1.655922055,-0.703360438,1.000000000,
51318,129.794336000,129.796780000,-0.492514998,0.206642553,10.335371971,1.206813335,0.492424518,2.108639956,-1.125000000,-4.437500000,-4.625000000,-89.341476440,-1.648236871,-0.701094866,1.000000000,
51319,129.796864000,129.796780000,-0.362256765,-0.188577890,9.608365059,-1.334078312,-0.465520769,2.287375212,-1.125000000,-4.437500000,-4.625000000,-89.348617554,-1.642607808,-0.698948979,1.000000000,
51321,129.801919000,129.796780000,0.131938443,-0.352709174,9.255686760,-1.645827532,1.419279933,-1.939615130,-1.125000000,-4.437500000,-4.625000000,-89.366317749,-1.645859599,-0.702491403,1.000000000,
51323,129.806974000,129.796780000,0.206790209,0.099992894,9.803819656,1.964143395,0.268005043,-2.451711893,-1.125000000,-4.437500000,-4.625000000,-89.368690491,-1.660751343,-0.704217136,1.000000000,
51325,129.812029000,129.817000000,-0.317392200,0.354853570,9.927733421,3.447571516,-3.647842646,2.603096724,-1.125000000,-4.437500000,-4.625000000,-89.359733582,-1.654000878,-0.683671176,1.000000000,
51327,129.817084000,129.817000000,-0.567031682,0.121331774,9.401250839,3.864089012,-0.412213355,1.932545900,-1.125000000,-4.375000000,-4.625000000,-89.345428467,-1.641069293,-0.679322243,1.000000000,
51329,129.822139000,129.817000000,-0.294519782,-0.552733004,8.378958702,-0.855820179,2.708822250,-0.973302722,-1.125000000,-4.375000000,-4.625000000,-89.349143982,-1.643640161,-0.695673525,1.000000000,
51331,129.827194000,129.817000000,0.052497171,-0.960060537,7.838127136,-7.818901062,-0.137766078,-0.380464792,-1.125000000,-4.375000000,-4.625000000,-89.388359070,-1.646379352,-0.700713992,1.000000000,
51333,129.832249000,129.837220000,0.159743115,-0.293132156,9.065353394,-5.652625084,1.119289517,-2.040912867,-1.125000000,-4.375000000,-4.625000000,-89.429832458,-1.653559685,-0.703631222,1.000000000,
51335,129.837304000,129.837220000,-0.122308716,0.776245594,10.993069649,0.421313256,1.253564477,-1.536527514,-1.125000000,-4.437500000,-4.625000000,-89.442962646,-1.664449096,-0.711294115,1.000000000,
51336,129.839831000,129.837220000,-0.325610906,1.078674197,11.514938354,2.482064247,-0.556367278,1.313120365,-1.125000000,-4.437500000,-4.625000000,-89.440620422,-1.661234021,-0.709728181,1.000000000,
51338,129.844886000,129.837220000,-0.412245601,0.940390468,11.448215485,3.398122787,-2.819937229,3.418631554,-1.125000000,-4.437500000,-4.625000000,-89.416854858,-1.644356608,-0.699317396,1.000000000,
51340,129.849941000,129.837220000,0.031111104,0.268647403,10.549939156,2.370345116,1.490746856,-1.037860155,-1.125000000,-4.437500000,-4.625000000,-89.395164490,-1.642915845,-0.703252971,1.000000000,
51342,129.854996000,129.857440000,0.279798090,-0.333911240,9.553860664,-1.318534732,0.953749895,-2.066886902,-1.187500000,-4.375000000,-4.687500000,-89.395874023,-1.654556394,-0.706567764,1.000000000,
51344,129.860051000,129.857440000,0.051486962,-0.298110008,9.439377785,-2.218230009,-1.221008539,0.763927102,-1.187500000,-4.375000000,-4.687500000,-89.416099548,-1.653535128,-0.698383272,1.000000000,
51346,129.865106000,129.857440000,-0.198390126,0.259276837,10.213841438,3.513664246,0.857486248,-0.249646172,-1.187500000,-4.375000000,-4.687500000,-89.413764954,-1.653079152,-0.695533156,1.000000000,
51348,129.870161000,129.857440000,-0.227276891,0.304582924,10.190011024,5.205002785,-0.068448871,1.483736038,-1.187500000,-4.375000000,-4.687500000,-89.394180298,-1.649653316,-0.694098234,1.000000000,
51350,129.875216000,129.877660000,0.008416373,-0.371783644,9.005678177,0.751772344,-3.075274467,2.001057863,-1.187500000,-4.437500000,-4.562500000,-89.390930176,-1.638341427,-0.677260041,1.000000000,
51351,129.877744000,129.877660000,0.168516427,-0.693295896,8.471895218,-1.481388450,-1.335123181,-0.193962723,-1.187500000,-4.437500000,-4.562500000,-89.398628235,-1.639119506,-0.673051834,1.000000000,
51353,129.882799000,129.877660000,0.215168089,-0.833814085,8.233597755,-4.778355598,2.542581081,-4.316926479,-1.187500000,-4.437500000,-4.562500000,-89.426467896,-1.656728506,-0.681069136,1.000000000,
51355,129.887854000,129.877660000,-0.288680971,-0.278910816,9.019975662,-5.724498272,1.316664457,-0.401081532,-1.187500000,-4.437500000,-4.562500000,-89.463058472,-1.666161776,-0.689046681,1.000000000,
51357,129.892909000,129.897880000,-0.618637204,0.618989050,10.502178192,-1.187999487,-0.213183433,1.903392911,-1.187500000,-4.437500000,-4.562500000,-89.483779907,-1.656921148,-0.688890398,1.000000000,
51359,129.897964000,129.897880000,-0.316141009,1.097740769,11.491158485,4.295061588,0.819682181,0.132435471,-1.125000000,-4.375000000,-4.625000000,-89.468719482,-1.654376388,-0.698352814,1.000000000,
51361,129.903019000,129.897880000,0.054396123,0.633295476,10.871588707,2.856930017,-2.283030987,0.274864823,-1.125000000,-4.375000000,-4.625000000,-89.443450928,-1.653843760,-0.694276631,1.000000000,
51363,129.908074000,129.897880000,0.055341121,-0.038400441,9.708702087,-0.942527890,-1.866027117,-0.055608999,-1.125000000,-4.375000000,-4.625000000,-89.436767578,-1.652264237,-0.684148490,1.000000000,
51365,129.913129000,129.918100000,-0.216929570,-0.117021963,9.437045097,-0.865822852,2.813659668,-1.923995137,-1.125000000,-4.375000000,-4.625000000,-89.439331055,-1.660583138,-0.700154722,1.000000000,
51366,129.915656000,129.918100000,-0.371938527,-0.002714499,9.580022812,-0.317259252,3.142350674,-0.999831200,-1.125000000,-4.375000000,-4.687500000,-89.441818237,-1.662890911,-0.713011146,1.000000000,
51368,129.920711000,129.918100000,-0.415655017,0.247449577,9.920736313,1.664469600,-0.670030177,3.131205320,-1.125000000,-4.375000000,-4.687500000,-89.437042236,-1.651880264,-0.725596368,1.000000000,
51370,129.925766000,129.918100000,0.066643313,0.207026228,10.030352592,4.063179493,-1.676080704,1.169604421,-1.125000000,-4.375000000,-4.687500000,-89.417198181,-1.641584039,-0.726575732,1.000000000,
51372,129.930821000,129.918100000,0.475401074,-0.278777242,9.393949509,2.445232868,-0.918169081,-2.024770260,-1.125000000,-4.375000000,-4.687500000,-89.401374817,-1.648817539,-0.713853002,1.000000000,
51374,129.935876000,129.938320000,0.211287081,-0.824305117,8.409786224,-3.635708570,-1.265373349,-0.359847546,-1.187500000,-4.375000000,-4.625000000,-89.419502258,-1.653927207,-0.703602254,1.000000000,
51376,129.940931000,129.938320000,-0.252563715,-0.645865262,8.603007317,-5.812617779,2.185869932,-0.388262928,-1.187500000,-4.375000000,-4.625000000,-89.455299377,-1.654761195,-0.706365645,1.000000000,
51378,129.945986000,129.938320000,-0.350872129,0.130607620,9.932701111,-2.166906357,3.795639992,-0.742427468,-1.187500000,-4.375000000,-4.625000000,-89.478706360,-1.659225106,-0.724210799,1.000000000,
51380,129.951041000,129.938320000,-0.096084848,0.649949133,10.971523285,0.359791785,-1.546562314,1.489162922,-1.187500000,-4.375000000,-4.625000000,-89.487609863,-1.654398680,-0.722277820,1.000000000,
51382,129.956096000,129.958540000,0.223797232,0.702395439,11.183606148,2.764508247,-3.368131876,0.200409010,-1.125000000,-4.437500000,-4.625000000,-89.482910156,-1.649704933,-0.699874461,1.000000000,
51384,129.961151000,129.958540000,0.103243187,0.407037258,10.602163315,2.652771950,0.109584175,-2.338655472,-1.125000000,-4.437500000,-4.625000000,-89.472892761,-1.660467029,-0.686883926,1.000000000,
51385,129.963679000,129.958540000,-0.175036311,0.195024416,10.104124069,0.931878269,0.689792991,-1.220007181,-1.125000000,-4.437500000,-4.625000000,-89.472297668,-1.663341165,-0.683625221,1.000000000,
51387,129.968734000,129.958540000,-0.670149267,-0.048011195,9.387002945,-1.631247878,0.683852315,2.245880365,-1.125000000,-4.437500000,-4.625000000,-89.485206604,-1.656093359,-0.684616983,1.000000000,
51389,129.973789000,129.978760000,-0.455268145,0.137870729,9.682490349,0.743678391,2.158791542,0.498107463,-1.125000000,-4.437500000,-4.625000000,-89.489723206,-1.649871707,-0.703387856,1.000000000,
51391,129.978844000,129.978760000,0.100091666,0.288092911,10.008955956,3.509197474,-0.132548094,-0.531447232,-1.125000000,-4.375000000,-4.562500000,-89.476821899,-1.652329564,-0.718331099,1.000000000,
51393,129.983899000,129.978760000,0.250861377,0.007083034,9.522830963,1.935045123,-4.401093960,1.023589969,-1.125000000,-4.375000000,-4.562500000,-89.469581604,-1.649411917,-0.702517271,1.000000000,
51395,129.988954000,129.978760000,-0.037947748,-0.385966301,8.855451584,0.128784969,-0.556870461,-0.667889595,-1.125000000,-4.375000000,-4.562500000,-89.473541260,-1.649957180,-0.690546095,1.000000000,
51397,129.994009000,129.998980000,-0.411142945,-0.564737201,8.533751488,-3.305040121,3.396637201,-0.860977650,-1.125000000,-4.375000000,-4.562500000,-89.493362427,-1.655871034,-0.704036951,1.000000000,
51399,129.999064000,129.998980000,-0.416049242,-0.374389887,8.946305275,-5.494125843,1.447285891,1.504118204,-1.125000000,-4.437500000,-4.625000000,-89.527465820,-1.650790334,-0.716145039,1.000000000,
51401,130.004119000,129.998980000,0.087001137,0.242570356,10.242637634,-1.539642572,0.498125911,-0.346126407,-1.125000000,-4.437500000,-4.625000000,-89.549530029,-1.648031235,-0.720845342,1.000000000,
51403,130.009174000,129.998980000,0.413464218,0.676052690,11.233949661,2.356736183,-1.168119073,-1.938391685,-1.125000000,-4.437500000,-4.625000000,-89.548820496,-1.658134699,-0.715026975,1.000000000,
51405,130.014229000,130.019200000,0.069334969,0.530639291,10.969440460,1.845336080,-3.250159740,0.832149625,-1.125000000,-4.437500000,-4.625000000,-89.541084290,-1.657307506,-0.690516353,1.000000000,
51406,130.016756000,130.019200000,-0.196347505,0.356712759,10.585783958,1.105887413,-1.826855779,1.362232089,-1.125000000,-4.375000000,-4.562500000,-89.539314270,-1.653834105,-0.680631936,1.000000000,
51408,130.021811000,130.019200000,-0.451252341,0.049350951,9.973464966,0.378879249,3.224059105,-0.258402258,-1.125000000,-4.375000000,-4.562500000,-89.539649963,-1.652592063,-0.680773437,1.000000000,
51410,130.026866000,130.019200000,-0.234751642,-0.067228273,9.677976608,-0.784089386,1.855203390,0.204672113,-1.125000000,-4.375000000,-4.562500000,-89.549667358,-1.653428435,-0.691879094,1.000000000,
51412,130.031921000,130.019200000,0.175795242,0.040233180,9.823134422,0.380567700,-2.220311403,0.705889463,-1.125000000,-4.375000000,-4.562500000,-89.557312012,-1.649543762,-0.681554437,1.000000000,
51414,130.036976000,130.039420000,0.299222946,0.216586769,10.047134399,3.853314877,-1.795953274,-1.657912850,-1.125000000,-4.375000000,-4.562500000,-89.544700623,-1.655366302,-0.661095023,1.000000000,
51416,130.042031000,130.039420000,-0.149723351,0.002208239,9.456108093,2.767314434,-0.914505124,0.086436622,-1.125000000,-4.375000000,-4.562500000,-89.529624939,-1.659114480,-0.645592928,1.000000000,
51417,130.044559000,130.039420000,-0.425734311,-0.245554835,8.934239388,0.243517697,-0.896988928,1.677617908,-1.125000000,-4.375000000,-4.562500000,-89.532302856,-1.654705286,-0.640517771,1.000000000,
51419,130.049614000,130.039420000,-0.543940544,-0.569469929,8.347930908,-3.525135279,1.882460356,1.112578630,-1.125000000,-4.375000000,-4.562500000,-89.554321289,-1.647191048,-0.646415949,1.000000000,
51421,130.054669000,130.059640000,-0.100118876,-0.381260008,8.879331589,-4.126654148,3.104325771,-2.169968128,-1.125000000,-4.375000000,-4.562500000,-89.582382202,-1.654184580,-0.664636433,1.000000000,
51423,130.059724000,130.059640000,0.180987448,0.142766669,9.901672363,-2.652101755,-1.015666485,-0.688940048,-1.125000000,-4.437500000,-4.625000000,-89.606132507,-1.661218047,-0.667113602,1.000000000,
51425,130.064779000,130.059640000,0.011118386,0.630935192,10.847707748,0.731636941,-2.834348202,0.100069232,-1.125000000,-4.437500000,-4.625000000,-89.614471436,-1.660640717,-0.652546585,1.000000000,
51427,130.069834000,130.059640000,-0.337743700,0.718914866,11.040728569,3.457090139,0.667328596,0.075306088,-1.125000000,-4.437500000,-4.625000000,-89.598602295,-1.660343289,-0.649094462,1.000000000,
51429,130.074889000,130.079860000,-0.495385051,0.263917863,10.247201920,0.693195820,0.686524332,1.578546166,-1.125000000,-4.437500000,-4.625000000,-89.583366394,-1.655103445,-0.657896340,1.000000000,
51431,130.079944000,130.079860000,-0.170535088,-0.155200362,9.601368904,-1.586904883,0.390528977,0.872568071,-1.125000000,-4.375000000,-4.625000000,-89.585449219,-1.647822618,-0.668650389,1.000000000,
51433,130.084999000,130.079860000,0.281106949,-0.062166758,9.803920746,0.085851863,0.982123792,-2.103969336,-1.125000000,-4.375000000,-4.625000000,-89.592681885,-1.655168533,-0.679687858,1.000000000,
51434,130.087526000,130.079860000,0.327767819,0.064096235,10.013621330,1.280978084,0.078024916,-2.034020424,-1.125000000,-4.375000000,-4.625000000,-89.591499329,-1.660320640,-0.675167739,1.000000000,
51436,130.092581000,130.079860000,0.021327307,0.226084828,10.073195457,2.777871370,-2.730457544,1.340197921,-1.125000000,-4.375000000,-4.625000000,-89.581245422,-1.657863736,-0.653907359,1.000000000,
51438,130.097636000,130.100080000,-0.268461555,0.054549392,9.663326263,2.841476440,-0.464738935,1.371951818,-1.187500000,-4.375000000,-4.625000000,-89.568038940,-1.649756074,-0.636157930,1.000000000,
51440,130.102691000,130.100080000,-0.171649575,-0.388577312,8.939105988,-0.074378990,2.017874479,-0.511154354,-1.187500000,-4.375000000,-4.625000000,-89.570106506,-1.649989367,-0.639238119,1.000000000,
51442,130.107746000,130.100080000,0.077699274,-0.657664776,8.512556076,-4.497604847,0.410328537,-0.182477251,-1.187500000,-4.375000000,-4.625000000,-89.596389771,-1.651365638,-0.642412484,1.000000000,
51444,130.112801000,130.100080000,0.175059050,-0.276490420,9.243974686,-4.037693977,0.150477588,-1.825426102,-1.187500000,-4.375000000,-4.625000000,-89.627136230,-1.657798290,-0.640769780,1.000000000,
51446,130.117856000,130.120300000,-0.086817272,0.454686761,10.461668968,0.304535955,0.815235853,-1.214763165,-1.187500000,-4.312500000,-4.687500000,-89.638412476,-1.665953875,-0.642827690,1.000000000,
51448,130.122911000,130.120300000,-0.463195622,0.749981642,10.888169289,1.772655606,-1.465772510,2.196820021,-1.187500000,-4.312500000,-4.687500000,-89.635444641,-1.660160661,-0.630600095,1.000000000,
51450,130.127966000,130.120300000,-0.402829975,0.504630744,10.525959015,1.675364494,-0.461587340,1.348595977,-1.187500000,-4.312500000,-4.687500000,-89.618751526,-1.649881363,-0.629333913,1.000000000,
51451,130.130494000,130.120300000,-0.219896421,0.295002788,10.223422050,1.210032463,0.989616752,-0.443497777,-1.187500000,-4.312500000,-4.687500000,-89.612068176,-1.650862694,-0.633898139,1.000000000,
51453,130.135549000,130.140520000,0.050292060,-0.071754858,9.661043167,-0.956070483,0.761960447,-1.684749603,-1.187500000,-4.312500000,-4.687500000,-89.606452942,-1.658707619,-0.644211531,1.000000000,
51455,130.140604000,130.140520000,-0.058048848,-0.050207239,9.575105667,-1.146671057,-1.342717171,0.369460106,-1.187500000,-4.375000000,-4.625000000,-89.608100891,-1.659812689,-0.646828592,1.000000000,
51457,130.145659000,130.140520000,-0.273564249,0.268932790,10.054080963,2.260171413,0.236214682,0.045918804,-1.187500000,-4.375000000,-4.625000000,-89.597496033,-1.658468127,-0.654769301,1.000000000,
51459,130.150714000,130.140520000,-0.328828335,0.283185631,10.023203850,3.794302940,0.128160551,0.928810656,-1.187500000,-4.375000000,-4.625000000,-89.574211121,-1.655399919,-0.666026473,1.000000000,
51461,130.155769000,130.160740000,-0.115014955,-0.221746162,9.227293968,0.483758926,-1.520824552,1.875752211,-1.187500000,-4.375000000,-4.625000000,-89.568305969,-1.646194220,-0.669148803,1.000000000,
51463,130.160824000,130.160740000,0.224991471,-0.641017854,8.719823837,-2.479769945,0.422583163,-1.562195539,-1.187500000,-4.312500000,-4.562500000,-89.585205078,-1.648778439,-0.669220686,1.000000000,
51465,130.165879000,130.160740000,0.212006882,-0.486193985,8.979566574,-3.651312828,1.582684875,-2.253564119,-1.187500000,-4.312500000,-4.562500000,-89.610214233,-1.661491394,-0.675766468,1.000000000,
51467,130.170934000,130.160740000,-0.162156507,0.056853615,9.820652008,-2.725518465,-0.318920046,0.719957471,-1.187500000,-4.312500000,-4.562500000,-89.634124756,-1.661973834,-0.674578965,1.000000000,
51469,130.175989000,130.180960000,-0.296166658,0.580810249,10.750007629,1.192672253,0.291040868,0.826270103,-1.187500000,-4.312500000,-4.562500000,-89.641166687,-1.656212211,-0.672789633,1.000000000,
51470,130.178516000,130.180960000,-0.201536119,0.673705637,10.966856956,2.352416754,0.699529052,0.200816736,-1.125000000,-4.375000000,-4.625000000,-89.638710022,-1.655640602,-0.671868145,1.000000000,
51472,130.183571000,130.180960000,0.050481558,0.416584015,10.597345352,1.571639657,-0.880558431,0.123100825,-1.125000000,-4.375000000,-4.625000000,-89.622726440,-1.655091763,-0.662373841,1.000000000,
51474,130.188626000,130.180960000,0.106556743,0.028379712,9.882456779,-0.763989866,-1.181321263,-0.195764855,-1.125000000,-4.375000000,-4.625000000,-89.619644165,-1.655631185,-0.646047056,1.000000000,
51476,130.193681000,130.180960000,-0.097794741,0.016381262,9.756312370,-0.208558112,1.319727898,-1.740462184,-1.125000000,-4.375000000,-4.625000000,-89.619422913,-1.662701249,-0.639365196,1.000000000,
51478,130.198736000,130.201180000,-0.377373904,0.237933159,9.908822060,0.982500076,0.883502245,0.657261908,-1.125000000,-4.375000000,-4.625000000,-89.611824036,-1.663298726,-0.636887312,1.000000000,
51480,130.203791000,130.201180000,-0.336569488,0.290372133,9.918403625,2.341363192,-1.125908613,2.198581457,-1.125000000,-4.375000000,-4.625000000,-89.594818115,-1.652860165,-0.637021482,1.000000000,
51482,130.208846000,130.201180000,0.033247378,0.049869929,9.611001015,2.644268036,-0.692511022,-0.266843319,-1.125000000,-4.375000000,-4.625000000,-89.574295044,-1.650505066,-0.638518274,1.000000000,
51484,130.213901000,130.201180000,0.151736841,-0.376448154,8.917509079,-0.323735654,-0.644325733,-1.053468704,-1.125000000,-4.375000000,-4.625000000,-89.578941345,-1.656652927,-0.632374108,1.000000000,
51485,130.216429000,130.221400000,0.028104380,-0.540857553,8.655382156,-2.590670109,-0.800013185,-0.567187607,-1.125000000,-4.375000000,-4.625000000,-89.589340210,-1.658096433,-0.629823506,1.000000000,
51487,130.221484000,130.221400000,-0.296816409,-0.402770907,8.845970154,-3.658132315,1.151847959,-0.027851537,-1.187500000,-4.375000000,-4.625000000,-89.616111755,-1.658766031,-0.631477058,1.000000000,
51489,130.226539000,130.221400000,-0.392174453,0.102091178,9.832516670,-1.569686294,2.582048655,-0.614134371,-1.187500000,-4.375000000,-4.625000000,-89.634445190,-1.661390424,-0.645196617,1.000000000,
51491,130.231594000,130.221400000,-0.179887831,0.433125824,10.533206940,0.328702897,-0.705424547,1.233497620,-1.187500000,-4.375000000,-4.625000000,-89.642471313,-1.657307625,-0.649012864,1.000000000,
51493,130.236649000,130.241620000,0.149081469,0.428406268,10.652355194,1.064091921,-2.061845779,0.317530841,-1.187500000,-4.375000000,-4.625000000,-89.645484924,-1.654078007,-0.640304506,1.000000000,
51495,130.241704000,130.241620000,0.178739607,0.233065978,10.373549461,0.864704311,-0.047931939,-1.825182557,-1.125000000,-4.437500000,-4.625000000,-89.646919250,-1.661104560,-0.632456660,1.000000000,
51497,130.246759000,130.241620000,-0.197645485,0.049612630,9.904106140,-0.605893254,0.487732619,0.332999617,-1.125000000,-4.437500000,-4.625000000,-89.654258728,-1.663728118,-0.627396047,1.000000000,
51499,130.251814000,130.241620000,-0.396918744,0.075807430,9.837383270,-0.264652073,0.814705670,1.436817527,-1.125000000,-4.437500000,-4.625000000,-89.664863586,-1.657012939,-0.629877925,1.000000000,
51501,130.256869000,130.261840000,-0.098375410,0.228362903,10.092359543,2.231168270,0.981648028,-0.002807768,-1.125000000,-4.437500000,-4.625000000,-89.663291931,-1.654710293,-0.640199006,1.000000000,
51502,130.259396000,130.261840000,0.095682427,0.209365770,10.080445290,2.674082756,0.022797542,-0.375903428,-1.125000000,-4.375000000,-4.625000000,-89.660537720,-1.655845165,-0.640627444,1.000000000,
51504,130.264451000,130.261840000,0.251196444,-0.052513376,9.589453697,1.511407495,-2.776975155,0.334671497,-1.125000000,-4.375000000,-4.625000000,-89.655380249,-1.654525280,-0.621129811,1.000000000,
51506,130.269506000,130.261840000,0.022873750,-0.321691394,9.022309303,-0.169142455,-0.401806206,-0.604528964,-1.125000000,-4.375000000,-4.625000000,-89.661155701,-1.656739593,-0.607512534,1.000000000,
51508,130.274561000,130.261840000,-0.330228746,-0.371826351,8.869850159,-2.203135014,2.185844183,-1.092398882,-1.125000000,-4.375000000,-4.625000000,-89.676452637,-1.662524939,-0.613585532,1.000000000,
51510,130.279616000,130.282060000,-0.431553572,-0.164615870,9.191549301,-3.136101723,1.134638667,1.248675823,-1.187500000,-4.375000000,-4.625000000,-89.698966980,-1.659082413,-0.622206926,1.000000000,
51512,130.284671000,130.282060000,-0.115638807,0.206926838,9.999474525,-1.116890311,0.087916628,0.121838301,-1.187500000,-4.375000000,-4.625000000,-89.716087341,-1.656156898,-0.624962509,1.000000000,
51514,130.289726000,130.282060000,0.155911669,0.447498590,10.583300591,1.193365574,-0.763832808,-1.747820020,-1.187500000,-4.375000000,-4.625000000,-89.719566345,-1.663094759,-0.623761296,1.000000000,
51516,130.294781000,130.282060000,-0.060790163,0.368847966,10.395046234,0.795258701,-1.999231458,0.319906920,-1.187500000,-4.375000000,-4.625000000,-89.721122742,-1.664723873,-0.608236611,1.000000000,
51518,130.299836000,130.302280000,-0.410211653,0.192491174,10.037603378,-0.216185525,0.330025077,0.447696000,-1.187500000,-4.375000000,-4.625000000,-89.724205017,-1.661861420,-0.606408119,1.000000000,
51519,130.302364000,130.302280000,-0.470649302,0.156786203,9.942233086,0.141509041,2.258509398,0.086191244,-1.187500000,-4.375000000,-4.625000000,-89.723983765,-1.661736012,-0.617623806,1.000000000,
51521,130.307419000,130.302280000,-0.293533713,0.092498742,9.899339676,0.052126031,1.480895758,0.224451333,-1.187500000,-4.375000000,-4.625000000,-89.723129272,-1.661033154,-0.639415503,1.000000000,
51523,130.312474000,130.302280000,0.090121508,0.094999962,9.937467575,0.742098153,-1.633533955,0.890756488,-1.187500000,-4.375000000,-4.625000000,-89.720207214,-1.656552553,-0.646108389,1.000000000,
51525,130.317529000,130.322500000,0.279680520,0.097427815,9.980360985,2.514951706,-1.334070683,-1.078693748,-1.187500000,-4.375000000,-4.625000000,-89.706764221,-1.659356356,-0.636723280,1.000000000,
51527,130.322584000,130.322500000,0.001923289,-0.086079188,9.575357437,1.507047892,-0.439481229,-0.435559750,-1.125000000,-4.375000000,-4.625000000,-89.696556091,-1.663685441,-0.623126507,1.000000000,
51529,130.327639000,130.322500000,-0.339217216,-0.338588059,8.974850655,-1.369497061,0.256210268,1.613522887,-1.125000000,-4.375000000,-4.625000000,-89.706779480,-1.657542348,-0.618436038,1.000000000,
51531,130.332694000,130.322500000,-0.202339441,-0.340855032,9.034223557,-2.435047150,2.146981955,-0.407274544,-1.125000000,-4.375000000,-4.625000000,-89.726577759,-1.656656027,-0.626769364,1.000000000,
51533,130.337749000,130.342720000,0.155474603,-0.069254071,9.615666389,-2.027679682,1.070328236,-1.287731409,-1.125000000,-4.375000000,-4.625000000,-89.744873047,-1.662394524,-0.634633958,1.000000000,
51535,130.342806000,130.342720000,0.201745540,0.257023484,10.194828033,-0.641743779,-1.713392258,0.093703680,-1.125000000,-4.437500000,-4.687500000,-89.758148193,-1.664262056,-0.624725938,1.000000000,
51536,130.345336000,130.342720000,0.090348229,0.387984991,10.425974846,0.313854396,-2.087775946,0.053431671,-1.125000000,-4.437500000,-4.687500000,-89.760650635,-1.664197445,-0.616381824,1.000000000,
51538,130.350396000,130.342720000,-0.244543910,0.480783522,10.542739868,1.837889552,0.490382880,-0.364719898,-1.125000000,-4.437500000,-4.687500000,-89.754158020,-1.666324139,-0.605133176,1.000000000,
51540,130.355456000,130.342720000,-0.443388820,0.244966701,10.113705635,0.296499252,0.696796358,0.836881280,-1.125000000,-4.437500000,-4.687500000,-89.742767334,-1.663461685,-0.606539071,1.000000000,
51542,130.360516000,130.362957000,-0.246521339,0.037826117,9.732432365,-0.688488424,0.417580366,1.016843200,-1.125000000,-4.375000000,-4.625000000,-89.739250183,-1.657087803,-0.614896536,1.000000000,
51544,130.365576000,130.362957000,0.087202676,0.066493236,9.844430923,0.538632035,0.353987306,-1.609451532,-1.125000000,-4.375000000,-4.625000000,-89.731933594,-1.662425756,-0.622090220,1.000000000,
51546,130.370636000,130.362957000,0.054137036,0.149879590,9.934983253,1.475535512,-1.183926940,-0.446028590,-1.125000000,-4.375000000,-4.625000000,-89.717819214,-1.666648388,-0.615792036,1.000000000,
51548,130.375696000,130.362957000,-0.260990322,0.104592264,9.715750694,1.912826538,-1.455412149,1.333220959,-1.125000000,-4.375000000,-4.625000000,-89.701232910,-1.661838889,-0.605177462,1.000000000,
51550,130.380756000,130.383197000,-0.363514364,-0.109829880,9.367838860,0.830216467,1.167013288,0.364505470,-1.187500000,-4.375000000,-4.687500000,-89.691253662,-1.658661008,-0.615746439,1.000000000,
51552,130.385816000,130.383197000,-0.159262806,-0.364627093,9.026973724,-1.506353140,1.178332567,-0.069012158,-1.187500000,-4.375000000,-4.687500000,-89.701950073,-1.658744454,-0.629360080,1.000000000,
51553,130.388346000,130.383197000,-0.013149124,-0.412252337,9.012675285,-3.153262854,0.065953419,-0.165067583,-1.187500000,-4.375000000,-4.687500000,-89.713668823,-1.659179211,-0.630700231,1.000000000,
51555,130.393406000,130.383197000,0.178787634,-0.152625620,9.494134903,-2.384150267,-0.268675089,-0.888146937,-1.187500000,-4.375000000,-4.687500000,-89.735427856,-1.661719203,-0.629597604,1.000000000,
51557,130.398466000,130.403437000,0.043817751,0.290368706,10.244769096,0.302594125,0.288784087,-1.311508536,-1.187500000,-4.375000000,-4.687500000,-89.745307922,-1.669255853,-0.628310144,1.000000000,
51559,130.403526000,130.403437000,-0.268780679,0.454528004,10.488032341,0.657651842,-0.924064934,1.258411288,-1.125000000,-4.375000000,-4.625000000,-89.748313904,-1.665922523,-0.620598555,1.000000000,
51561,130.408586000,130.403437000,-0.284298986,0.335430682,10.275948524,0.689853072,0.254983693,1.304698348,-1.125000000,-4.375000000,-4.625000000,-89.737335205,-1.657897711,-0.618748665,1.000000000,
51563,130.413646000,130.403437000,0.006677996,0.121173777,10.020820618,-0.050657894,1.185236335,-0.939762294,-1.125000000,-4.375000000,-4.625000000,-89.728660583,-1.660065532,-0.625239611,1.000000000,
51565,130.418706000,130.423677000,0.142220110,0.040272441,9.823035240,-0.557543874,-0.338906407,-0.601496875,-1.125000000,-4.375000000,-4.625000000,-89.724121094,-1.663897395,-0.620355129,1.000000000,
51567,130.423766000,130.423677000,-0.013071574,0.178429902,9.911253929,0.735090375,-1.221155047,0.182445377,-1.125000000,-4.375000000,-4.562500000,-89.717849731,-1.663920164,-0.605279922,1.000000000,
51568,130.426296000,130.423677000,-0.127607659,0.252247870,10.004190445,1.930363059,-0.135049760,-0.016989149,-1.125000000,-4.375000000,-4.562500000,-89.710098267,-1.663834095,-0.601299167,1.000000000,
51570,130.431356000,130.423677000,-0.281857997,0.166451395,9.842149734,2.385295391,0.322816312,0.522661686,-1.125000000,-4.375000000,-4.562500000,-89.690727234,-1.662577391,-0.598584056,1.000000000,
51572,130.436416000,130.423677000,-0.208351851,-0.212232471,9.253457069,-0.030288817,-0.766434968,1.234543800,-1.125000000,-4.375000000,-4.562500000,-89.686950684,-1.656470656,-0.594904602,1.000000000,
51574,130.441476000,130.443917000,0.020080492,-0.402716339,8.948436737,-1.605164289,0.411593437,-0.823239803,-1.125000000,-4.375000000,-4.625000000,-89.701622009,-1.657743692,-0.594977319,1.000000000,
51576,130.446536000,130.443917000,0.028766179,-0.245535895,9.224910736,-2.303174734,0.798532903,-1.855458736,-1.125000000,-4.375000000,-4.625000000,-89.720832825,-1.667741179,-0.598605156,1.000000000,
51578,130.451596000,130.443917000,-0.248560801,0.114060499,9.796821594,-1.682695746,-0.815087557,0.469178557,-1.125000000,-4.375000000,-4.625000000,-89.738006592,-1.668023586,-0.596178651,1.000000000,
51580,130.456656000,130.443917000,-0.377439111,0.418935150,10.347186089,0.836237133,0.413678676,1.038210034,-1.125000000,-4.375000000,-4.625000000,-89.744956970,-1.662936687,-0.598240077,1.000000000,
51582,130.461716000,130.464157000,-0.190046385,0.371265709,10.432971954,1.272974968,0.550438941,-0.063279226,-1.125000000,-4.375000000,-4.562500000,-89.739639282,-1.662225366,-0.611842513,1.000000000,
51584,130.466776000,130.464157000,0.033051811,0.106851593,10.020870209,-0.249334186,-0.785730600,0.313013345,-1.125000000,-4.375000000,-4.562500000,-89.735046387,-1.660523415,-0.619930685,1.000000000,
51585,130.469306000,130.464157000,0.082624704,0.018732153,9.880276680,-1.003723383,-1.180065751,-0.283620685,-1.125000000,-4.375000000,-4.562500000,-89.734710693,-1.661464214,-0.620882452,1.000000000,
51587,130.474366000,130.464157000,-0.001013163,0.099718243,9.923220634,0.275839329,0.845025837,-1.124863863,-1.125000000,-4.375000000,-4.562500000,-89.728073120,-1.665816307,-0.621829093,1.000000000,
51589,130.479426000,130.484397000,-0.225471348,0.242606923,10.075729370,1.067892671,0.328435898,0.321640849,-1.125000000,-4.375000000,-4.562500000,-89.715812683,-1.667151690,-0.624539673,1.000000000,
51591,130.484486000,130.484397000,-0.242783532,0.214072064,9.977977753,1.829236269,-0.809130371,1.789249659,-1.187500000,-4.375000000,-4.625000000,-89.699798584,-1.658399343,-0.626217604,1.000000000,
51593,130.489546000,130.484397000,0.040590636,-0.000215475,9.639596939,1.839078784,0.053616766,-0.192366436,-1.187500000,-4.375000000,-4.625000000,-89.683189392,-1.655864477,-0.628546476,1.000000000,
51595,130.494606000,130.484397000,0.191421941,-0.314661771,9.160721779,-0.771751642,-0.208285704,-1.104294419,-1.187500000,-4.375000000,-4.625000000,-89.688369751,-1.661194682,-0.620973229,1.000000000,
51597,130.499666000,130.504637000,0.006016232,-0.362320125,8.998680115,-2.467148066,-0.711563826,-0.239199892,-1.187500000,-4.375000000,-4.625000000,-89.706649780,-1.662951350,-0.614343464,1.000000000,
51599,130.504726000,130.504637000,-0.230935484,-0.026414327,9.510816574,-1.358691335,1.335546970,-0.275849074,-1.187500000,-4.375000000,-4.625000000,-89.723892212,-1.664215684,-0.616015136,1.000000000,
51600,130.507256000,130.504637000,-0.291403472,0.161723644,9.853962898,-0.700006127,1.581551909,-0.216438740,-1.187500000,-4.375000000,-4.625000000,-89.729583740,-1.664961934,-0.619074464,1.000000000,
51602,130.512316000,130.504637000,-0.234119847,0.352253526,10.256683350,0.266266048,-0.266825676,0.942425430,-1.187500000,-4.375000000,-4.625000000,-89.737472534,-1.662380934,-0.619687736,1.000000000,
51604,130.517376000,130.504637000,-0.030310629,0.280761778,10.273414612,0.345656902,-1.281461120,0.124174759,-1.187500000,-4.375000000,-4.625000000,-89.743225098,-1.659479976,-0.611618102,1.000000000,
51606,130.522436000,130.524877000,0.019108698,0.161662757,10.104224205,0.452308893,0.194834337,-1.283874393,-1.125000000,-4.375000000,-4.625000000,-89.747413635,-1.664812922,-0.604117095,1.000000000,
51608,130.527496000,130.524877000,-0.238340706,0.080491357,9.904308319,-0.551073551,0.182317466,-0.117902912,-1.125000000,-4.375000000,-4.625000000,-89.755882263,-1.668373346,-0.599458873,1.000000000,
51610,130.532556000,130.524877000,-0.413200408,0.149563834,9.920988083,0.271807730,0.410966516,1.309234262,-1.125000000,-4.375000000,-4.625000000,-89.760307312,-1.662711501,-0.609878480,1.000000000,
51612,130.537616000,130.524877000,-0.216053829,0.235427007,10.040084839,1.965622187,0.791671991,0.323356360,-1.125000000,-4.375000000,-4.625000000,-89.752609253,-1.659751058,-0.624822557,1.000000000,
51614,130.542676000,130.545117000,0.072663747,0.071151972,9.804172516,1.481541157,-1.128660440,0.060724363,-1.125000000,-4.375000000,-4.625000000,-89.742027283,-1.659784198,-0.632828712,1.000000000,
51616,130.547736000,130.545117000,0.127693176,-0.176378697,9.353490829,0.072935045,-1.649751544,-0.147424996,-1.125000000,-4.375000000,-4.625000000,-89.744590759,-1.660025239,-0.628469229,1.000000000,
51618,130.552796000,130.545117000,-0.067337178,-0.259801477,9.184300423,-1.038338065,0.940227747,-0.997411788,-1.125000000,-4.375000000,-4.625000000,-89.756584167,-1.664285421,-0.627789438,1.000000000,
51619,130.555326000,130.545117000,-0.191684246,-0.217105404,9.222728729,-1.301021099,1.524435759,-0.541192472,-1.125000000,-4.375000000,-4.625000000,-89.763786316,-1.665579796,-0.631206751,1.000000000,
51621,130.560386000,130.565357000,-0.276437789,-0.026556676,9.506301880,-1.763624907,0.730010748,1.027248025,-1.125000000,-4.375000000,-4.625000000,-89.780647278,-1.662918806,-0.636342466,1.000000000,
51623,130.565446000,130.565357000,-0.031847414,0.195069760,9.985126495,-0.577956617,-0.100974835,0.235232547,-1.125000000,-4.437500000,-4.625000000,-89.793067932,-1.659521103,-0.637829721,1.000000000,
51625,130.570506000,130.565357000,0.204564393,0.292743087,10.273466110,0.783735693,-0.213261381,-0.993860006,-1.125000000,-4.437500000,-4.625000000,-89.797370911,-1.663836479,-0.633321285,1.000000000,
51627,130.575566000,130.565357000,0.057734072,0.204539597,10.154315948,-0.076585241,-1.276133776,-0.230520383,-1.125000000,-4.437500000,-4.625000000,-89.799957275,-1.666429758,-0.617652714,1.000000000,
51629,130.580626000,130.585597000,-0.254676819,0.159218028,9.994658470,-0.367175341,0.238848329,0.328171998,-1.125000000,-4.437500000,-4.625000000,-89.804000854,-1.664991021,-0.605568349,1.000000000,
51631,130.585686000,130.585597000,-0.343202174,0.190043777,10.011590958,0.649338186,1.977783918,0.049804032,-1.187500000,-4.375000000,-4.562500000,-89.806823730,-1.664931893,-0.605084479,1.000000000,
51633,130.590746000,130.585597000,-0.158832982,0.159132689,9.980612755,0.593735337,-0.110569023,0.734711468,-1.187500000,-4.375000000,-4.562500000,-89.800132751,-1.661706209,-0.617387533,1.000000000,
51634,130.593276000,130.585597000,-0.020152071,0.132990569,9.921038628,1.159428120,-1.260005116,0.685584247,-1.187500000,-4.375000000,-4.562500000,-89.793876648,-1.659893870,-0.617190540,1.000000000,
51636,130.598336000,130.585597000,0.110856429,0.037826303,9.777909279,1.442693233,-1.056057453,-0.771282434,-1.187500000,-4.375000000,-4.562500000,-89.783592224,-1.661701202,-0.601012766,1.000000000,
51638,130.603396000,130.605837000,-0.101794444,-0.095580965,9.451442719,0.550861299,-0.033319365,-0.454350233,-1.125000000,-4.375000000,-4.687500000,-89.781173706,-1.666061521,-0.588814259,1.000000000,
51640,130.608456000,130.605837000,-0.378984988,-0.229005709,9.158288002,-1.405082941,0.169552311,1.106579900,-1.125000000,-4.375000000,-4.687500000,-89.793594360,-1.662344694,-0.589016199,1.000000000,
51642,130.613516000,130.605837000,-0.296593279,-0.157545626,9.327478409,-1.532010794,1.515609980,0.233602926,-1.125000000,-4.375000000,-4.687500000,-89.808532715,-1.659116626,-0.599031687,1.000000000,
51644,130.618576000,130.605837000,0.012570452,0.047306448,9.770811081,-0.855916321,0.531959057,-0.706470490,-1.125000000,-4.375000000,-4.687500000,-89.821464539,-1.662347794,-0.608299851,1.000000000,
51646,130.623636000,130.626077000,0.127013326,0.187825412,10.106807709,-0.643346727,-1.493848681,-0.111413047,-1.187500000,-4.437500000,-4.625000000,-89.832939148,-1.664035320,-0.603667438,1.000000000,
51648,130.628696000,130.626077000,-0.039901674,0.283045352,10.264085770,0.702190399,-0.502326429,-0.223732859,-1.187500000,-4.437500000,-4.625000000,-89.838531494,-1.664512396,-0.596143365,1.000000000,
51650,130.633756000,130.626077000,-0.265677899,0.252021849,10.171148300,0.528436244,1.295418859,0.040748775,-1.187500000,-4.437500000,-4.625000000,-89.834175110,-1.665307641,-0.595563710,1.000000000,
51652,130.638816000,130.626077000,-0.264494598,0.125834733,9.949432373,-0.509019852,0.323716938,1.014604926,-1.187500000,-4.437500000,-4.625000000,-89.829635620,-1.660628557,-0.607525826,1.000000000,
51653,130.641346000,130.646317000,-0.144871071,0.099673010,9.911304474,-0.394465983,0.204818085,0.565926015,-1.187500000,-4.437500000,-4.625000000,-89.828170776,-1.659403443,-0.612465501,1.000000000,
51655,130.646406000,130.646317000,0.152768493,0.130824134,10.006422043,0.932119012,-0.119073994,-1.082678437,-1.125000000,-4.375000000,-4.625000000,-89.818405151,-1.662240028,-0.613081276,1.000000000,
51657,130.651466000,130.646317000,0.150052026,0.149933115,9.946847916,1.386722803,-0.998110712,-0.383419156,-1.125000000,-4.375000000,-4.625000000,-89.809181213,-1.666202545,-0.598966420,1.000000000,
51659,130.656526000,130.646317000,-0.134193510,0.049749512,9.668242455,0.829447091,-1.164570451,0.599367917,-1.125000000,-4.375000000,-4.625000000,-89.801696777,-1.663551092,-0.581910908,1.000000000,
51661,130.661586000,130.666557000,-0.293825597,-0.086055249,9.396585464,0.411255002,1.106354833,0.306484252,-1.125000000,-4.375000000,-4.625000000,-89.797340393,-1.661353111,-0.573667884,1.000000000,
51663,130.666646000,130.666557000,-0.198783189,-0.212324858,9.241742134,-1.235496879,1.175576687,0.048644200,-1.125000000,-4.375000000,-4.562500000,-89.809173584,-1.661485195,-0.577707112,1.000000000,
51664,130.669176000,130.666557000,-0.090809755,-0.224221453,9.265572548,-1.773575068,0.212797716,0.186727107,-1.125000000,-4.375000000,-4.562500000,-89.817604065,-1.661079645,-0.577856541,1.000000000,
51666,130.674236000,130.666557000,0.076472744,-0.047930863,9.623016357,-1.275204062,-0.647904098,-0.601892173,-1.125000000,-4.375000000,-4.562500000,-89.833633423,-1.663306355,-0.573124826,1.000000000,
51667,130.676766000,130.666557000,0.070594266,0.090336598,9.877741814,-0.532377183,-0.178026542,-1.045771599,-1.125000000,-4.375000000,-4.562500000,-89.838783264,-1.665873885,-0.571127594,1.000000000,
51669,130.681826000,130.686797000,-0.174562842,0.285577387,10.192293167,0.462815344,-0.128280118,-0.247026443,-1.125000000,-4.375000000,-4.562500000,-89.844894409,-1.669294477,-0.566258013,1.000000000,
51670,130.684356000,130.686797000,-0.323149949,0.306982458,10.192293167,0.385423034,-0.266635448,0.911997199,-1.125000000,-4.375000000,-4.687500000,-89.847534180,-1.667165995,-0.563187778,1.000000000,
51672,130.689416000,130.686797000,-0.386002809,0.235391319,10.082878113,0.028606260,0.447328836,0.953909338,-1.125000000,-4.375000000,-4.687500000,-89.843902588,-1.661480188,-0.574322939,1.000000000,
51674,130.694476000,130.686797000,-0.118009783,0.137777269,10.004240990,0.072942875,0.993699789,-0.556249261,-1.125000000,-4.375000000,-4.687500000,-89.839088440,-1.662032366,-0.588900566,1.000000000,
51676,130.699536000,130.686797000,0.075704925,0.087870233,9.932652473,0.043187167,-0.530263782,-0.309903264,-1.125000000,-4.375000000,-4.687500000,-89.833778381,-1.664574742,-0.596298337,1.000000000,
51678,130.704596000,130.707037000,-0.003368944,0.123605222,9.935033798,0.524793744,-1.219441056,0.094318837,-1.125000000,-4.375000000,-4.687500000,-89.824356079,-1.664227366,-0.594309330,1.000000000,
51680,130.709656000,130.707037000,-0.176229954,0.149779662,9.875510216,1.782858014,0.453943014,0.081433848,-1.125000000,-4.375000000,-4.687500000,-89.808357239,-1.663910747,-0.598148763,1.000000000,
51682,130.714716000,130.707037000,-0.216340929,-0.019328617,9.546661377,0.806081951,0.476249725,0.979815006,-1.125000000,-4.375000000,-4.687500000,-89.796150208,-1.660787106,-0.606124103,1.000000000,
51683,130.717246000,130.707037000,-0.147838667,-0.131257802,9.360790253,-0.211406499,-0.017582549,0.948607504,-1.125000000,-4.375000000,-4.687500000,-89.795692444,-1.658569694,-0.611527085,1.000000000,
51685,130.722306000,130.727277000,0.086538486,-0.219339684,9.270237923,-1.332370996,0.251108974,-0.469858170,-1.125000000,-4.375000000,-4.687500000,-89.808975220,-1.659040451,-0.614723206,1.000000000,
51687,130.727366000,130.727277000,0.138249591,-0.085925691,9.529930115,-1.102667570,0.230322033,-1.334410071,-1.125000000,-4.375000000,-4.625000000,-89.822212219,-1.665379286,-0.613180697,1.000000000,
51688,130.729896000,130.727277000,0.040873345,0.016468309,9.694354057,-0.976732194,-0.181603029,-0.686256886,-1.125000000,-4.375000000,-4.625000000,-89.828208923,-1.667218208,-0.610090494,1.000000000,
51690,130.734956000,130.727277000,-0.213831604,0.211701408,10.016054153,-0.304730922,-0.604050994,0.702720046,-1.125000000,-4.375000000,-4.625000000,-89.837585449,-1.664717436,-0.601132214,1.000000000,
51691,130.737486000,130.727277000,-0.275418878,0.268701315,10.140220642,0.295194596,0.169603065,0.740285099,-1.125000000,-4.375000000,-4.625000000,-89.840179443,-1.663170457,-0.598243892,1.000000000,
51693,130.742546000,130.747517000,-0.212993026,0.242483526,10.161667824,0.557581961,0.798614383,0.033574522,-1.125000000,-4.375000000,-4.625000000,-89.833976746,-1.661832213,-0.595742047,1.000000000,
51695,130.747606000,130.747517000,-0.055964224,0.102137245,9.961196899,-0.641329288,-0.407686353,-0.036636084,-1.125000000,-4.375000000,-4.625000000,-89.828140259,-1.661783099,-0.593244612,1.000000000,
51697,130.752666000,130.747517000,-0.008148074,0.085476927,9.939749718,-0.439289212,-0.493173122,-0.693624616,-1.125000000,-4.375000000,-4.625000000,-89.823692322,-1.664069414,-0.585797548,1.000000000,
51699,130.757726000,130.747517000,-0.153685957,0.202184841,10.061281204,1.117519021,0.557711124,-0.627707303,-1.125000000,-4.375000000,-4.625000000,-89.811943054,-1.667555928,-0.583562732,1.000000000,
51700,130.760256000,130.747517000,-0.256776690,0.214073330,10.054132462,1.216020465,0.080822587,0.257739097,-1.125000000,-4.375000000,-4.625000000,-89.804870605,-1.667072296,-0.583938181,1.000000000,
51702,130.765316000,130.767757000,-0.313151777,0.135507718,9.820601463,1.259496689,-0.619110525,1.616453290,-1.125000000,-4.375000000,-4.687500000,-89.791503906,-1.659852028,-0.586737514,1.000000000,
51704,130.770376000,130.767757000,-0.099053591,-0.062261578,9.513450623,0.645048380,0.303357303,-0.092974447,-1.125000000,-4.375000000,-4.687500000,-89.782096863,-1.657676935,-0.595163286,1.000000000,
51706,130.775436000,130.767757000,0.086547695,-0.224182710,9.265622139,-0.918995976,0.100509316,-0.950303435,-1.125000000,-4.375000000,-4.687500000,-89.787788391,-1.662295341,-0.603922188,1.000000000,
51708,130.780496000,130.767757000,0.005244821,-0.176520869,9.301317215,-1.747286081,-0.591705918,-0.033120386,-1.125000000,-4.375000000,-4.687500000,-89.804244995,-1.663840771,-0.601280332,1.000000000,
51710,130.785556000,130.787997000,-0.169772089,0.063977428,9.735015869,-0.760192394,0.555868566,-0.141275018,-1.125000000,-4.375000000,-4.687500000,-89.817817688,-1.664073467,-0.601612806,1.000000000,
51712,130.790616000,130.787997000,-0.215881497,0.242683351,10.082726479,0.471792012,0.763250887,0.450013161,-1.125000000,-4.375000000,-4.687500000,-89.824394226,-1.662858486,-0.606902540,1.000000000,
51714,130.795676000,130.787997000,-0.086530939,0.202203631,10.070812225,-0.125737473,-0.572964311,0.672403276,-1.125000000,-4.375000000,-4.687500000,-89.832466125,-1.659479260,-0.608732104,1.000000000,
51716,130.800736000,130.787997000,0.085598312,0.116452098,9.989842415,-0.347501546,-0.247027293,-0.541824341,-1.125000000,-4.375000000,-4.687500000,-89.840476990,-1.660329103,-0.602198780,1.000000000,
51718,130.805796000,130.808237000,0.039922796,0.121219695,9.963627815,-0.112280242,0.285611778,-0.981930315,-1.187500000,-4.375000000,-4.562500000,-89.843009949,-1.665475011,-0.592457831,1.000000000,
51720,130.810856000,130.808237000,-0.197189629,0.171066165,9.980563164,0.112383321,-0.168074131,0.468675643,-1.187500000,-4.375000000,-4.562500000,-89.842399597,-1.664780974,-0.581083179,1.000000000,
51722,130.815916000,130.808237000,-0.266421288,0.211545199,10.030603409,1.191636682,0.167832583,0.705614805,-1.187500000,-4.375000000,-4.562500000,-89.830505371,-1.660568476,-0.577632725,1.000000000,
51723,130.818446000,130.808237000,-0.199517429,0.183077246,10.001807213,1.575744987,0.576381922,0.262845665,-1.187500000,-4.375000000,-4.562500000,-89.822631836,-1.660097241,-0.579662025,1.000000000,
51725,130.823506000,130.828477000,-0.016530246,-0.005048610,9.713468552,0.826133788,-0.600954771,0.220493987,-1.187500000,-4.375000000,-4.562500000,-89.808731079,-1.658791780,-0.579347670,1.000000000,
51727,130.828566000,130.828477000,0.029574750,-0.195504650,9.379702568,-0.526474833,-1.055623651,-0.373803526,-1.125000000,-4.375000000,-4.625000000,-89.811828613,-1.659986019,-0.567354441,1.000000000,
51729,130.833626000,130.828477000,-0.109579608,-0.178847879,9.351107597,-0.858227491,0.627929568,-0.883786321,-1.125000000,-4.375000000,-4.625000000,-89.823661804,-1.663634777,-0.566324592,1.000000000,
51731,130.838686000,130.828477000,-0.288235545,-0.019306101,9.551325798,-0.933730543,0.984986842,0.371543318,-1.125000000,-4.375000000,-4.625000000,-89.836334229,-1.664044380,-0.571663618,1.000000000,
51733,130.843746000,130.848717000,-0.258030742,0.123606049,9.820601463,-0.600715280,-0.140230581,0.919187665,-1.125000000,-4.375000000,-4.625000000,-89.847473145,-1.659569144,-0.575758040,1.000000000,
51734,130.846276000,130.848717000,-0.151903614,0.168872401,9.946898460,0.111889549,-0.136399314,0.468987048,-1.062500000,-4.375000000,-4.625000000,-89.850776672,-1.658573031,-0.577944815,1.000000000,
51736,130.851336000,130.848717000,0.042846411,0.185588777,10.065997124,0.185935140,-0.025281718,-0.988007605,-1.062500000,-4.375000000,-4.625000000,-89.857070923,-1.662070990,-0.582776368,1.000000000,
51738,130.856396000,130.848717000,-0.012824859,0.145095378,9.963528633,-0.434248477,-0.685584843,-0.190515637,-1.062500000,-4.375000000,-4.625000000,-89.865852356,-1.664178252,-0.581462204,1.000000000,
51740,130.861456000,130.848717000,-0.197427958,0.168805808,9.944616318,-0.187502503,0.238050774,0.356939167,-1.062500000,-4.375000000,-4.625000000,-89.874992371,-1.663226008,-0.584850609,1.000000000,
51742,130.866516000,130.868957000,-0.230442449,0.223574445,10.044700623,0.708110392,1.076925397,0.125877559,-1.125000000,-4.375000000,-4.687500000,-89.868064880,-1.662089825,-0.598630488,1.000000000,
51744,130.871576000,130.868957000,-0.070266820,0.185575515,9.975494385,0.771495998,-0.295751512,0.671439171,-1.125000000,-4.375000000,-4.687500000,-89.856933594,-1.659529090,-0.604400516,1.000000000,
51746,130.876636000,130.868957000,0.115628749,0.066540211,9.782473564,0.734424531,-1.127086520,0.124219075,-1.125000000,-4.375000000,-4.687500000,-89.845336914,-1.657309532,-0.598152757,1.000000000,
51748,130.881696000,130.868957000,0.097862676,-0.047903359,9.589654922,0.456438601,-0.183127612,-0.872569859,-1.125000000,-4.375000000,-4.687500000,-89.838005066,-1.660952330,-0.587292731,1.000000000,
51750,130.886756000,130.889197000,-0.140357032,-0.124183111,9.410933495,-0.639918387,0.212673888,-0.027761167,-1.125000000,-4.375000000,-4.625000000,-89.840126038,-1.662397146,-0.577115893,1.000000000,
51751,130.889286000,130.889197000,-0.243508130,-0.131289393,9.398866653,-1.081361890,0.112444393,0.657589436,-1.125000000,-4.375000000,-4.625000000,-89.845550537,-1.660926580,-0.573197186,1.000000000,
51753,130.894346000,130.889197000,-0.225708470,-0.031253371,9.589504242,-0.845401525,0.893027365,0.250750244,-1.125000000,-4.375000000,-4.625000000,-89.857803345,-1.658359051,-0.573802531,1.000000000,
51755,130.899406000,130.889197000,-0.027758067,0.078316070,9.854063034,-0.344337016,0.433511913,-0.353628486,-1.125000000,-4.375000000,-4.625000000,-89.867408752,-1.660029769,-0.575109720,1.000000000,
51757,130.904466000,130.909437000,0.042241380,0.116435990,9.946999550,-0.344763964,-1.152073979,-0.167784631,-1.125000000,-4.375000000,-4.625000000,-89.875671387,-1.661156893,-0.564610004,1.000000000,
51759,130.909526000,130.909437000,-0.098850057,0.164013386,10.001856804,-0.074982688,-0.189498276,-0.244868398,-1.125000000,-4.437500000,-4.625000000,-89.881347656,-1.661881208,-0.552289546,1.000000000,
51761,130.914586000,130.909437000,-0.290434539,0.202077702,10.028070450,0.078767620,0.831482232,0.006822579,-1.125000000,-4.437500000,-4.625000000,-89.876495361,-1.662822485,-0.550159931,1.000000000,
51763,130.919646000,130.909437000,-0.302724481,0.185416684,9.970879555,-0.242396846,0.419148922,0.776439607,-1.125000000,-4.437500000,-4.625000000,-89.871315002,-1.659828663,-0.561226428,1.000000000,
51765,130.924706000,130.929677000,-0.084585823,0.173568621,9.980410576,0.497503936,-0.164988145,0.168969736,-1.125000000,-4.437500000,-4.625000000,-89.863845825,-1.657792330,-0.567903996,1.000000000,
51767,130.929766000,130.929677000,0.090108708,0.137919515,9.935085297,1.144473910,-0.340861082,-0.789328456,-1.125000000,-4.375000000,-4.562500000,-89.851013184,-1.660766244,-0.570238709,1.000000000,
51768,130.932296000,130.929677000,0.067963786,0.085519388,9.827850342,1.117693186,-0.779773176,-0.438305020,-1.125000000,-4.375000000,-4.562500000,-89.844284058,-1.661866188,-0.567715049,1.000000000,
51770,130.937356000,130.929677000,-0.120401531,-0.016917868,9.560958862,0.200269744,-0.632713258,0.402004153,-1.125000000,-4.375000000,-4.562500000,-89.834426880,-1.660576701,-0.561802804,1.000000000,
51772,130.942416000,130.929677000,-0.226517007,-0.059825581,9.434712410,-0.187384367,1.015403032,0.248943344,-1.125000000,-4.375000000,-4.562500000,-89.827011108,-1.658467174,-0.566967368,1.000000000,
51774,130.947476000,130.949917000,-0.130488083,-0.076499410,9.465690613,-0.846925735,0.832584918,0.101158924,-1.125000000,-4.437500000,-4.625000000,-89.829864502,-1.658483624,-0.582250118,1.000000000,
51776,130.952536000,130.949917000,0.045350160,-0.023955654,9.641777039,-1.029938817,-0.686638951,0.020999677,-1.125000000,-4.437500000,-4.625000000,-89.842643738,-1.658010721,-0.582252204,1.000000000,
51778,130.957596000,130.949917000,0.090126291,0.104634598,9.946797371,-0.081249960,-0.399960518,-0.753818631,-1.125000000,-4.437500000,-4.625000000,-89.847732544,-1.660894632,-0.569176972,1.000000000,
51780,130.962656000,130.949917000,-0.105541892,0.185390726,10.092458725,0.253489912,-0.065492950,-0.304394901,-1.125000000,-4.437500000,-4.625000000,-89.845336914,-1.663382769,-0.557314754,1.000000000,
51782,130.967716000,130.970157000,-0.302469730,0.173442572,10.016204834,-0.151865304,-0.079645917,0.917692304,-1.125000000,-4.375000000,-4.625000000,-89.838981628,-1.660396338,-0.552148640,1.000000000,
51783,130.970246000,130.970157000,-0.293112636,0.152036577,9.975645065,-0.034485981,0.389088601,0.655848145,-1.125000000,-4.375000000,-4.625000000,-89.835395813,-1.658612132,-0.555376053,1.000000000,
51785,130.975306000,130.970157000,-0.103771150,0.123491883,9.978027344,0.103534274,0.837323725,-0.469357640,-1.125000000,-4.375000000,-4.625000000,-89.828315735,-1.659067273,-0.564862132,1.000000000,
51787,130.980366000,130.970157000,0.032769099,0.106858172,9.966114044,0.102146335,-0.747153580,-0.372766912,-1.125000000,-4.375000000,-4.625000000,-89.820289612,-1.661147594,-0.565676689,1.000000000,
51789,130.985426000,130.990397000,-0.053724807,0.128309771,9.925602913,0.765171826,-0.972649336,0.156067535,-1.125000000,-4.375000000,-4.625000000,-89.809356689,-1.660863400,-0.559557319,1.000000000,
51791,130.990486000,130.990397000,-0.236426815,0.113999344,9.820752144,1.062662482,0.272270352,-0.155254304,-1.125000000,-4.375000000,-4.625000000,-89.796646118,-1.661508203,-0.559741557,1.000000000,
51793,130.995546000,130.990397000,-0.292955428,-0.026542256,9.558626175,0.264166862,0.419784009,0.624896824,-1.125000000,-4.375000000,-4.625000000,-89.788116455,-1.659092188,-0.569963515,1.000000000,
51795,131.000606000,130.990397000,-0.135741889,-0.150365129,9.379903793,-0.845187902,-0.040208150,0.386363685,-1.125000000,-4.375000000,-4.625000000,-89.791992188,-1.656685948,-0.580642521,1.000000000,
51797,131.005666000,131.010637000,0.056674384,-0.090762801,9.508584023,-0.829187751,0.286742330,-0.948201120,-1.125000000,-4.375000000,-4.625000000,-89.803115845,-1.659657598,-0.587953568,1.000000000,
51799,131.010726000,131.010637000,0.019620588,0.075960919,9.746931076,-0.465888053,-0.279207528,-0.452290803,-1.125000000,-4.437500000,-4.625000000,-89.813911438,-1.663081408,-0.588264883,1.000000000,
51801,131.015786000,131.010637000,-0.171016976,0.202141896,9.949481964,-0.305163473,-0.261459440,0.588614285,-1.125000000,-4.437500000,-4.625000000,-89.823623657,-1.661614060,-0.586420178,1.000000000,
51803,131.020846000,131.010637000,-0.220792174,0.225955233,10.056615829,0.319525927,0.704643369,0.182237580,-1.125000000,-4.437500000,-4.625000000,-89.818298340,-1.659703493,-0.597403288,1.000000000,
51805,131.025906000,131.030877000,-0.086981207,0.137826964,9.982743263,-0.130928025,0.428208351,0.031986903,-1.125000000,-4.437500000,-4.625000000,-89.810775757,-1.659767032,-0.605365753,1.000000000,
51806,131.028436000,131.030877000,-0.008150470,0.092581317,9.935085297,-0.222180754,-0.316148818,-0.007819620,-1.125000000,-4.375000000,-4.687500000,-89.807403564,-1.659872293,-0.605724216,1.000000000,
51808,131.033496000,131.030877000,0.061403509,0.106955633,9.949280739,-0.018021718,-0.559576213,-0.429040194,-1.125000000,-4.375000000,-4.687500000,-89.800605774,-1.661466837,-0.599705279,1.000000000,
51810,131.038556000,131.030877000,-0.060424641,0.176013529,10.023153305,0.908456981,-0.095090948,-0.516784310,-1.125000000,-4.375000000,-4.687500000,-89.790229797,-1.664270163,-0.593200743,1.000000000,
51812,131.043616000,131.030877000,-0.233619571,0.128285617,9.899339676,1.131396651,-0.266888887,0.759206772,-1.125000000,-4.375000000,-4.687500000,-89.777000427,-1.662085652,-0.589082658,1.000000000,
51814,131.048676000,131.051117000,-0.208562613,-0.009853248,9.656276703,0.532208443,0.078186288,0.588814378,-1.125000000,-4.375000000,-4.625000000,-89.765975952,-1.658258438,-0.590564668,1.000000000,
51816,131.053736000,131.051117000,-0.034497485,-0.117012404,9.489520073,-0.227292717,0.405037850,-0.592710555,-1.125000000,-4.375000000,-4.625000000,-89.763000488,-1.659841657,-0.600289285,1.000000000,
51818,131.058796000,131.051117000,0.015612867,-0.119354568,9.449009895,-1.065474629,-0.306866378,-0.598227143,-1.125000000,-4.375000000,-4.625000000,-89.775535583,-1.663269043,-0.597969949,1.000000000,
51819,131.061326000,131.051117000,-0.034356721,-0.059803672,9.515732765,-1.121356130,-0.466723949,-0.213333413,-1.125000000,-4.375000000,-4.625000000,-89.782279968,-1.663585901,-0.595774889,1.000000000,
51821,131.066386000,131.071357000,-0.183868721,0.121189803,9.789773941,-0.221840635,0.212150678,-0.059829209,-1.125000000,-4.375000000,-4.625000000,-89.792633057,-1.664091110,-0.593703210,1.000000000,
51823,131.071446000,131.071357000,-0.252380222,0.216502950,9.980259895,0.320579171,0.485733122,0.327873617,-1.187500000,-4.375000000,-4.562500000,-89.796333313,-1.663126945,-0.602928400,1.000000000,
51825,131.076506000,131.071357000,-0.163912058,0.156949133,9.942132950,-0.186227277,-0.229912221,0.558561444,-1.187500000,-4.375000000,-4.562500000,-89.792358398,-1.660266280,-0.612363756,1.000000000,
51827,131.081566000,131.071357000,-0.013107564,0.104568176,9.908771515,-0.345997185,-0.062164325,-0.420204818,-1.187500000,-4.375000000,-4.562500000,-89.788017273,-1.660844922,-0.619385600,1.000000000,
51829,131.086626000,131.091597000,-0.015248194,0.133151308,9.956430435,-0.049168035,0.219431549,-0.655897498,-1.187500000,-4.375000000,-4.562500000,-89.780807495,-1.664688706,-0.621701777,1.000000000,
51831,131.091686000,131.091597000,-0.166002691,0.195039690,9.996990204,0.202035770,-0.292654306,0.525821090,-1.125000000,-4.437500000,-4.625000000,-89.772224426,-1.663462996,-0.621204317,1.000000000,
51833,131.096746000,131.091597000,-0.211511850,0.214095071,10.001756668,1.041989207,0.137310207,0.735639513,-1.125000000,-4.437500000,-4.625000000,-89.760124207,-1.659312963,-0.623478591,1.000000000,
51834,131.099276000,131.091597000,-0.154301375,0.171231538,9.944565773,1.188076615,0.420740932,0.381762683,-1.125000000,-4.437500000,-4.625000000,-89.753227234,-1.658364892,-0.625683367,1.000000000,
51836,131.104336000,131.091597000,0.012034199,-0.007450068,9.673058510,0.466369152,-0.194583729,0.049711533,-1.125000000,-4.437500000,-4.625000000,-89.741294861,-1.658142090,-0.627211094,1.000000000,
51838,131.109396000,131.111837000,0.075423427,-0.152726620,9.427613258,-0.642880976,-0.592497528,-0.187942609,-1.187500000,-4.437500000,-4.625000000,-89.740432739,-1.658762813,-0.616742909,1.000000000,
51840,131.114456000,131.111837000,-0.036944043,-0.097908594,9.482321739,-0.795653641,0.406868726,-0.619367361,-1.187500000,-4.437500000,-4.625000000,-89.750961304,-1.661403179,-0.610234618,1.000000000,
51842,131.119516000,131.111837000,-0.213125378,0.054496925,9.699170113,-0.488678277,0.614560485,0.096093513,-1.187500000,-4.437500000,-4.625000000,-89.761039734,-1.661881208,-0.608288586,1.000000000,
51844,131.124576000,131.111837000,-0.231262580,0.161647156,9.889858246,-0.305202186,-0.230314255,0.589032412,-1.187500000,-4.437500000,-4.625000000,-89.770637512,-1.658329010,-0.607686281,1.000000000,
51846,131.129636000,131.132077000,-0.065272555,0.173560128,10.006623268,0.254248917,0.058030643,-0.243156344,-1.125000000,-4.375000000,-4.625000000,-89.777732849,-1.658580422,-0.610216498,1.000000000,
51848,131.134696000,131.132077000,0.015990749,0.116340816,9.961447716,-0.078749426,-0.247353911,-0.602716804,-1.125000000,-4.375000000,-4.625000000,-89.774589539,-1.661671638,-0.599137604,1.000000000,
51850,131.139756000,131.132077000,-0.113897264,0.106808402,9.873277664,-0.370080501,-0.504193008,0.139182523,-1.125000000,-4.375000000,-4.625000000,-89.773406982,-1.662091017,-0.586069286,1.000000000,
51852,131.144816000,131.132077000,-0.257392108,0.178351328,9.937417030,0.198055506,0.582725585,0.032359175,-1.125000000,-4.375000000,-4.625000000,-89.765869141,-1.661578894,-0.587519407,1.000000000,
51853,131.147346000,131.152317000,-0.271566719,0.204551369,9.975545883,0.647548497,0.860269248,0.093356818,-1.125000000,-4.375000000,-4.625000000,-89.760948181,-1.661203146,-0.592889190,1.000000000,
51855,131.152406000,131.152317000,-0.166399390,0.166471168,9.923119545,0.770142376,-0.200892106,0.524023950,-1.125000000,-4.375000000,-4.562500000,-89.750328064,-1.659207225,-0.600086689,1.000000000,
51857,131.157466000,131.152317000,-0.006738041,0.059333906,9.753929138,0.436065942,-0.847126305,0.129835501,-1.125000000,-4.375000000,-4.562500000,-89.740692139,-1.657556415,-0.601387024,1.000000000,
51859,131.162526000,131.152317000,0.004386228,-0.038349889,9.591938019,0.368018746,-0.091062307,-0.751798213,-1.125000000,-4.375000000,-4.562500000,-89.730606079,-1.660389543,-0.602032542,1.000000000,
51861,131.167586000,131.172557000,-0.161578253,-0.076493435,9.479937553,-0.729293048,0.119243070,0.030871687,-1.125000000,-4.375000000,-4.562500000,-89.731544495,-1.661380410,-0.608369350,1.000000000,
51863,131.172646000,131.172557000,-0.247446284,0.002089195,9.553860664,-0.842533112,0.392123312,0.571022570,-1.125000000,-4.437500000,-4.625000000,-89.740097046,-1.658615589,-0.619039297,1.000000000,
51865,131.177706000,131.172557000,-0.114355542,0.109291948,9.792156219,-0.102552928,0.616483569,-0.144024938,-1.125000000,-4.437500000,-4.625000000,-89.744102478,-1.657991767,-0.632888615,1.000000000,
51867,131.182766000,131.172557000,0.049354300,0.130753085,9.932701111,-0.194851384,-0.313263744,-0.245991752,-1.125000000,-4.437500000,-4.625000000,-89.744544983,-1.659648657,-0.643914402,1.000000000,
51869,131.187826000,131.192797000,0.037499443,0.121197321,9.956532478,-0.253550947,-0.811965525,-0.074189298,-1.125000000,-4.437500000,-4.625000000,-89.744026184,-1.660022259,-0.628477395,1.000000000,
51870,131.190356000,131.192797000,-0.031911399,0.130699575,9.973211288,-0.045711320,-0.313250840,-0.276562631,-1.125000000,-4.375000000,-4.625000000,-89.742691040,-1.660894990,-0.622404277,1.000000000,
51872,131.195416000,131.192797000,-0.209130466,0.161593184,9.994709969,0.196629569,0.770966232,-0.143467352,-1.125000000,-4.375000000,-4.625000000,-89.736106873,-1.661543608,-0.617190659,1.000000000,
51874,131.200476000,131.192797000,-0.259624690,0.156824484,9.963729858,-0.004057900,0.326199740,0.714307249,-1.125000000,-4.375000000,-4.625000000,-89.728004456,-1.659033895,-0.621391535,1.000000000,
51876,131.205536000,131.192797000,-0.103902698,0.132970363,9.947201729,0.708191931,-0.042757165,0.258896887,-1.125000000,-4.375000000,-4.625000000,-89.717956543,-1.656559587,-0.626086950,1.000000000,
51878,131.210596000,131.213037000,0.029869881,0.082995743,9.866180420,0.728538692,-0.373912215,-0.579129636,-1.125000000,-4.437500000,-4.625000000,-89.706253052,-1.658468366,-0.626347363,1.000000000,
51880,131.215656000,131.213037000,-0.057644151,-0.007431334,9.642029762,0.195293978,-0.782471895,-0.046437129,-1.125000000,-4.437500000,-4.625000000,-89.696792603,-1.659595847,-0.619573116,1.000000000,
51882,131.220716000,131.213037000,-0.216610834,-0.038398143,9.494286537,-0.158585101,0.176903725,0.266664535,-1.125000000,-4.437500000,-4.625000000,-89.690505981,-1.658296585,-0.619893730,1.000000000,
51884,131.225776000,131.213037000,-0.233194873,0.002108471,9.530031204,-0.519720972,1.020252824,-0.076514058,-1.125000000,-4.437500000,-4.625000000,-89.694160461,-1.658114433,-0.635345936,1.000000000,
51886,131.230836000,131.233277000,-0.107984841,0.040238582,9.639647484,-0.547018886,0.084343962,0.297228813,-1.125000000,-4.375000000,-4.625000000,-89.699035645,-1.657288671,-0.647853851,1.000000000,
51888,131.235896000,131.233277000,0.015135777,0.095024504,9.806454659,-0.495165557,-0.621939719,-0.337978393,-1.125000000,-4.375000000,-4.625000000,-89.705184937,-1.658399463,-0.655241966,1.000000000,
51890,131.240956000,131.233277000,-0.039217457,0.154528677,9.949432373,0.161002919,-0.155334204,-0.543250859,-1.125000000,-4.375000000,-4.625000000,-89.701293945,-1.661052704,-0.644852400,1.000000000,
51892,131.246016000,131.233277000,-0.209460780,0.154525340,9.937417030,-0.099565029,0.022146508,0.234345481,-1.125000000,-4.375000000,-4.625000000,-89.693778992,-1.661036491,-0.643070102,1.000000000,
51893,131.248546000,131.253517000,-0.257545680,0.137834370,9.908822060,-0.362833947,0.202741325,0.744225442,-1.125000000,-4.375000000,-4.625000000,-89.691390991,-1.658935189,-0.646962047,1.000000000,
51895,131.253606000,131.253517000,-0.173489094,0.140180901,9.937517166,-0.066842407,0.640799522,0.391768754,-1.125000000,-4.375000000,-4.625000000,-89.686248779,-1.656313777,-0.657229185,1.000000000,
51897,131.258666000,131.253517000,0.011263985,0.133071050,9.978027344,0.311843067,0.091514073,-0.451301873,-1.125000000,-4.375000000,-4.625000000,-89.677444458,-1.657878280,-0.663677096,1.000000000,
51899,131.263726000,131.253517000,0.049340311,0.097349383,9.927986145,0.404113561,-0.844680071,-0.078214936,-1.125000000,-4.375000000,-4.625000000,-89.668495178,-1.658414006,-0.655802667,1.000000000,
51901,131.268786000,131.273757000,-0.075856954,0.075908259,9.820752144,0.792691588,-0.285793215,-0.161689103,-1.125000000,-4.375000000,-4.625000000,-89.658927917,-1.659005880,-0.645569265,1.000000000,
51903,131.273846000,131.273757000,-0.208589375,0.018737318,9.649179459,0.320152968,0.641719997,0.240882024,-1.125000000,-4.437500000,-4.625000000,-89.650039673,-1.658021331,-0.641109049,1.000000000,
51904,131.276376000,131.273757000,-0.225851595,-0.026517868,9.558626175,-0.126940608,0.454706997,0.389459848,-1.125000000,-4.437500000,-4.625000000,-89.646530151,-1.657045007,-0.640580475,1.000000000,
51906,131.281436000,131.273757000,-0.111110806,-0.086052276,9.503817558,-0.635891020,-0.009668326,0.385655314,-1.125000000,-4.437500000,-4.625000000,-89.657508850,-1.654692411,-0.642991245,1.000000000,
51908,131.286496000,131.273757000,0.040782578,-0.012158273,9.675340652,-0.588965416,0.222721025,-0.831409156,-1.125000000,-4.437500000,-4.625000000,-89.668632507,-1.657656670,-0.641135693,1.000000000,
51910,131.291556000,131.293997000,-0.001319084,0.106929310,9.868361473,-0.377132952,-0.527153730,-0.486092359,-1.125000000,-4.437500000,-4.687500000,-89.676589966,-1.661201954,-0.631581068,1.000000000,
51912,131.296616000,131.293997000,-0.190187097,0.178340167,9.954147339,-0.008765464,-0.508057177,0.404909909,-1.125000000,-4.437500000,-4.687500000,-89.680770874,-1.659490108,-0.619224608,1.000000000,
51914,131.301676000,131.293997000,-0.271619111,0.178304911,9.963679314,0.139748454,0.643362522,0.152591497,-1.125000000,-4.437500000,-4.687500000,-89.675941467,-1.658078551,-0.619213104,1.000000000,
51916,131.306736000,131.293997000,-0.164144784,0.121160686,9.894574165,-0.248678997,0.364198029,0.210269958,-1.125000000,-4.437500000,-4.687500000,-89.670661926,-1.657386661,-0.630137742,1.000000000,
51917,131.309266000,131.314237000,-0.082840681,0.094982214,9.861212730,-0.249300763,-0.194877133,0.232110381,-1.125000000,-4.437500000,-4.687500000,-89.668296814,-1.656923532,-0.633521318,1.000000000,
51919,131.314326000,131.314237000,0.018030196,0.111636654,9.897056580,0.013084502,-0.436653614,-0.367858827,-1.125000000,-4.437500000,-4.562500000,-89.661056519,-1.657828331,-0.633625865,1.000000000,
51921,131.319386000,131.314237000,-0.063145913,0.164028823,9.954249382,0.731978893,-0.129082322,-0.278146446,-1.125000000,-4.437500000,-4.562500000,-89.650672913,-1.659717560,-0.629281640,1.000000000,
51923,131.324446000,131.314237000,-0.212395981,0.123562723,9.834999084,0.472430646,-0.108275734,0.616256535,-1.125000000,-4.437500000,-4.562500000,-89.639579773,-1.657881021,-0.627277136,1.000000000,
51925,131.329506000,131.334477000,-0.194259986,0.016388148,9.641979218,0.322427928,0.141503185,0.531339228,-1.125000000,-4.437500000,-4.562500000,-89.630355835,-1.654388428,-0.632112563,1.000000000,
51927,131.334566000,131.334477000,-0.031883381,-0.059811231,9.530031204,-0.287135512,0.560746014,-0.619936228,-1.125000000,-4.375000000,-4.625000000,-89.629585266,-1.656303406,-0.644017637,1.000000000,
51929,131.339626000,131.334477000,0.032951869,-0.052648745,9.553860664,-0.943664074,-0.309738636,-0.390625954,-1.125000000,-4.375000000,-4.625000000,-89.641174316,-1.658844471,-0.640200019,1.000000000,
51931,131.344686000,131.334477000,-0.059440468,0.059238978,9.751697540,-0.610700428,-0.377511829,-0.006524161,-1.125000000,-4.375000000,-4.625000000,-89.651329041,-1.658854961,-0.631242573,1.000000000,
51933,131.349746000,131.354717000,-0.175758898,0.166369423,9.959013939,0.437314540,0.302114785,0.056907129,-1.125000000,-4.375000000,-4.625000000,-89.656059265,-1.659397244,-0.624509156,1.000000000,
51935,131.354806000,131.354717000,-0.185417145,0.161702961,9.954046249,0.082252860,0.205472752,0.444234252,-1.187500000,-4.437500000,-4.625000000,-89.651473999,-1.657482386,-0.618912876,1.000000000,
51937,131.359866000,131.354717000,-0.075648621,0.106955163,9.865879059,-0.251457214,-0.223487139,0.053122111,-1.187500000,-4.437500000,-4.625000000,-89.644638062,-1.655981898,-0.616600692,1.000000000,
51939,131.364926000,131.354717000,-0.010778569,0.109271795,9.889858246,-0.169476628,0.189468518,-0.744869888,-1.187500000,-4.437500000,-4.625000000,-89.639953613,-1.659067869,-0.609531820,1.000000000,
51940,131.367456000,131.354717000,-0.041793164,0.133088425,9.916071892,-0.047711968,-0.031047605,-0.510594070,-1.187500000,-4.437500000,-4.625000000,-89.637252808,-1.660367846,-0.605334818,1.000000000,
51942,131.372516000,131.374957000,-0.185446307,0.185476214,9.942283630,0.469004244,-0.290921390,0.316130847,-1.125000000,-4.375000000,-4.625000000,-89.628288269,-1.659620047,-0.599597096,1.000000000,
51944,131.377576000,131.374957000,-0.243175447,0.187985122,9.913436890,0.768575370,0.174113423,0.350727528,-1.125000000,-4.375000000,-4.625000000,-89.616729736,-1.657324433,-0.602675915,1.000000000,
51946,131.382636000,131.374957000,-0.148144618,0.071278587,9.758543015,0.736009479,0.301667541,0.084890284,-1.125000000,-4.375000000,-4.625000000,-89.605529785,-1.656195283,-0.608995855,1.000000000,
51948,131.387696000,131.374957000,-0.024692468,-0.086012051,9.532362938,-0.373452216,-0.438101262,-0.157512695,-1.125000000,-4.375000000,-4.625000000,-89.600975037,-1.656391025,-0.615818083,1.000000000,
51950,131.392756000,131.395197000,-0.020065699,-0.090760723,9.501384735,-0.795366704,-0.184354320,-0.508713424,-1.187500000,-4.375000000,-4.625000000,-89.612556458,-1.658167362,-0.616440237,1.000000000,
51951,131.395286000,131.395197000,-0.072416633,-0.035932161,9.575156212,-0.705832720,0.219892249,-0.563036859,-1.187500000,-4.375000000,-4.625000000,-89.618362427,-1.659824967,-0.617058575,1.000000000,
51953,131.400346000,131.395197000,-0.203178436,0.102196515,9.770559311,-0.338373989,0.271136701,0.239151761,-1.187500000,-4.375000000,-4.625000000,-89.628234863,-1.659959078,-0.620179355,1.000000000,
51955,131.405406000,131.395197000,-0.204773635,0.164002731,9.911355972,0.024865812,0.078448012,0.651146829,-1.187500000,-4.375000000,-4.625000000,-89.635314941,-1.656932354,-0.626975298,1.000000000,
51957,131.410466000,131.415437000,-0.063069135,0.142561331,9.968545914,-0.013459775,0.026049314,-0.123094581,-1.187500000,-4.375000000,-4.625000000,-89.639076233,-1.656439543,-0.637248278,1.000000000,
51959,131.415526000,131.415437000,0.018087368,0.085524872,9.918252945,-0.197484136,0.000772018,-0.509420097,-1.125000000,-4.375000000,-4.687500000,-89.645713806,-1.658636212,-0.639516532,1.000000000,
51961,131.420586000,131.415437000,-0.058807459,0.090288155,9.880124092,-0.371861905,-0.284435123,-0.006624300,-1.125000000,-4.375000000,-4.687500000,-89.650749207,-1.659501195,-0.627361119,1.000000000,
51963,131.425646000,131.415437000,-0.173425108,0.159248605,9.949432373,0.347226888,0.302804261,0.027626695,-1.125000000,-4.375000000,-4.687500000,-89.645942688,-1.659167886,-0.620718718,1.000000000,
51965,131.430706000,131.435677000,-0.180627584,0.166400433,9.947049141,0.888272285,0.360272676,0.293313175,-1.125000000,-4.375000000,-4.687500000,-89.634223938,-1.657958984,-0.625195146,1.000000000,
51967,131.435766000,131.435677000,-0.073587149,0.071178801,9.799255371,0.497477889,-0.507052541,0.223616153,-1.187500000,-4.375000000,-4.687500000,-89.623451233,-1.656216383,-0.626682103,1.000000000,
51968,131.438296000,131.435677000,-0.016517445,0.018793385,9.715851784,0.165193602,-0.471163571,-0.101401754,-1.187500000,-4.375000000,-4.687500000,-89.619041443,-1.656316280,-0.625166714,1.000000000,
51970,131.443356000,131.435677000,-0.002713904,-0.035977997,9.608617783,0.010647478,-0.060645342,-0.630386949,-1.187500000,-4.375000000,-4.687500000,-89.618560791,-1.658935428,-0.613731802,1.000000000,
51972,131.448416000,131.435677000,-0.144240424,-0.024117965,9.582456589,-0.460650593,0.025747025,-0.001652222,-1.187500000,-4.375000000,-4.687500000,-89.626968384,-1.660618901,-0.608196557,1.000000000,
51974,131.453476000,131.455917000,-0.237232998,0.049710657,9.670624733,-0.515100002,0.144133657,0.476449877,-1.125000000,-4.375000000,-4.625000000,-89.637542725,-1.658288956,-0.609724939,1.000000000,
51976,131.458536000,131.455917000,-0.152584225,0.123595737,9.815936089,-0.040558770,0.458294451,0.091436468,-1.125000000,-4.375000000,-4.625000000,-89.644210815,-1.657392144,-0.619154274,1.000000000,
51978,131.463596000,131.455917000,-0.032487240,0.125994116,9.865978241,-0.074910387,-0.282879442,-0.216457129,-1.125000000,-4.375000000,-4.625000000,-89.649932861,-1.658606052,-0.627232432,1.000000000,
51980,131.468656000,131.455917000,-0.032437250,0.111658134,9.873178482,-0.373459607,-0.686890304,-0.131256178,-1.125000000,-4.375000000,-4.625000000,-89.657730103,-1.659216881,-0.621848106,1.000000000,
51982,131.473716000,131.476157000,-0.139975578,0.147350341,9.930368423,0.045638725,0.244395643,-0.209620565,-1.125000000,-4.375000000,-4.625000000,-89.650566101,-1.660419703,-0.619261026,1.000000000,
51984,131.478776000,131.476157000,-0.223726213,0.173557863,9.956532478,0.171196163,0.423799515,0.327857256,-1.125000000,-4.375000000,-4.625000000,-89.642601013,-1.659132719,-0.626775444,1.000000000,
51985,131.481306000,131.476157000,-0.211807340,0.164031878,9.944616318,0.201957226,-0.012668387,0.470295668,-1.125000000,-4.375000000,-4.625000000,-89.638809204,-1.657866240,-0.630118906,1.000000000,
51987,131.486366000,131.476157000,-0.077819631,0.133059472,9.899440765,0.498922378,0.051071666,0.261320442,-1.125000000,-4.375000000,-4.625000000,-89.629768372,-1.656109214,-0.635955632,1.000000000,
51989,131.491426000,131.496397000,0.036639690,0.059249934,9.792206764,0.491135865,-0.188742235,-0.426468700,-1.125000000,-4.375000000,-4.625000000,-89.619277954,-1.657622218,-0.635398328,1.000000000,
51991,131.496486000,131.496397000,-0.031333137,-0.016953519,9.632497787,0.013849823,-0.499734700,-0.279506058,-1.125000000,-4.375000000,-4.625000000,-89.612724304,-1.659520745,-0.625120580,1.000000000,
51993,131.501546000,131.496397000,-0.165758312,-0.007441025,9.591987610,-0.250137329,0.396979034,0.061975691,-1.125000000,-4.375000000,-4.625000000,-89.614669800,-1.658985972,-0.614233077,1.000000000,
51995,131.506606000,131.496397000,-0.186777145,0.040177528,9.694455147,-0.098983169,0.830062449,0.156561524,-1.125000000,-4.375000000,-4.625000000,-89.622276306,-1.658042669,-0.615186572,1.000000000,
51997,131.511666000,131.516637000,-0.083213001,0.061617866,9.789773941,-0.368353069,-0.132988915,0.263417602,-1.125000000,-4.375000000,-4.625000000,-89.631729126,-1.657318473,-0.617452204,1.000000000,
51999,131.516726000,131.516637000,0.013082311,0.085399710,9.866129875,-0.194892406,-0.499816805,-0.248564571,-1.187500000,-4.437500000,-4.625000000,-89.634948730,-1.657433271,-0.604647100,1.000000000,
52001,131.521786000,131.516637000,-0.034567475,0.116347827,9.918554306,0.161982611,-0.063167535,-0.482387722,-1.187500000,-4.437500000,-4.625000000,-89.634223938,-1.660390854,-0.592193544,1.000000000,
52003,131.526846000,131.516637000,-0.200067669,0.125913486,9.899339676,-0.337440282,0.145659417,0.326689601,-1.187500000,-4.437500000,-4.625000000,-89.631355286,-1.659523129,-0.582649231,1.000000000,
52005,131.531906000,131.536877000,-0.255227059,0.144972384,9.892191887,-0.065214433,0.327926606,0.595609784,-1.187500000,-4.437500000,-4.625000000,-89.626373291,-1.656504631,-0.591178358,1.000000000,
52006,131.534436000,131.536877000,-0.207167789,0.159281790,9.916020393,0.170019493,0.487356097,0.209732160,-1.125000000,-4.375000000,-4.625000000,-89.623344421,-1.655935287,-0.596721530,1.000000000,
52008,131.539496000,131.536877000,-0.058452744,0.154553071,9.939849854,0.553614557,-0.005394249,-0.186194345,-1.125000000,-4.375000000,-4.625000000,-89.614852905,-1.656710267,-0.604685903,1.000000000,
52010,131.544556000,131.536877000,-0.008508772,0.099773675,9.868361473,0.464709014,-0.690259993,-0.016864825,-1.125000000,-4.375000000,-4.625000000,-89.604606628,-1.656841278,-0.604651034,1.000000000,
52012,131.549616000,131.536877000,-0.102540262,0.054450408,9.758845329,0.405467004,-0.286449969,-0.040532008,-1.125000000,-4.375000000,-4.625000000,-89.594589233,-1.656800389,-0.603142023,1.000000000,
52014,131.554676000,131.557117000,-0.206245244,0.006797793,9.637313843,0.110149354,0.518695593,0.180791274,-1.125000000,-4.437500000,-4.687500000,-89.586135864,-1.656437039,-0.609623671,1.000000000,
52016,131.559736000,131.557117000,-0.185057610,-0.043174759,9.570490837,-0.486044258,0.082828984,0.415883571,-1.125000000,-4.437500000,-4.687500000,-89.589355469,-1.654476047,-0.622205317,1.000000000,
52018,131.564796000,131.557117000,-0.045480985,-0.012191033,9.677723885,-0.404749215,0.061184175,-0.358574241,-1.125000000,-4.437500000,-4.687500000,-89.598449707,-1.654696345,-0.629443049,1.000000000,
52020,131.569856000,131.557117000,0.024952367,0.066390611,9.849348068,-0.168450683,-0.153810412,-0.600949049,-1.125000000,-4.437500000,-4.687500000,-89.607490540,-1.657839537,-0.628633380,1.000000000,
