idx,imu_Timestamp[sec],mag_Timestamp[sec],accX[m/s^2],accY[m/s^2],accZ[m/s^2],gyroX[deg/s],gyroY[deg/s],gyroZ[deg/s],magX[uT],magY[uT],magZ[uT],orX[deg],orY[deg],orZ[deg],moving, 
2636,6.672538000,6.659399000,-0.797643483,-0.073958926,9.790996552,-1.325172305,5.251720905,22.125394821,-0.750000000,-4.625000000,-4.375000000,-89.518371582,14.436514854,-0.678872645,1.000000000,
2638,6.677598000,6.659399000,-0.557996571,0.283203483,10.677559853,1.497696757,-5.088432789,19.225818634,-0.750000000,-4.625000000,-4.375000000,-89.516876221,14.536314011,-0.670029044,1.000000000,
2639,6.680128000,6.659399000,-0.562623382,0.419090927,10.708539009,4.584555149,0.800626874,21.881368637,-0.750000000,-4.625000000,-4.375000000,-89.504173279,14.591073990,-0.675521791,1.000000000,
2641,6.685188000,6.679639000,-0.590905070,0.059256576,10.351093292,1.952126741,-3.976895571,19.625942230,-0.687500000,-4.562500000,-4.375000000,-89.487846375,14.695039749,-0.675094485,1.000000000,
2643,6.690248000,6.679639000,-0.668125510,-0.469508767,9.359781265,-0.151454329,3.560414791,23.077093124,-0.687500000,-4.562500000,-4.375000000,-89.483581543,14.805512428,-0.687708974,1.000000000,
2645,6.695308000,6.679639000,-0.350266337,-0.657683313,9.193023682,-3.474478006,0.902852833,20.230573654,-0.687500000,-4.562500000,-4.375000000,-89.504760742,14.909147263,-0.701559961,1.000000000,
2647,6.700368000,6.679639000,0.087658085,-0.281254977,9.965103149,-2.463080168,3.114188194,19.452922821,-0.687500000,-4.562500000,-4.375000000,-89.521591187,15.008589745,-0.722118676,1.000000000,
2649,6.705428000,6.699879000,0.439385325,0.433758676,10.756147385,2.903280735,-1.768199921,21.586296082,-0.625000000,-4.562500000,-4.312500000,-89.520690918,15.111890793,-0.716787696,1.000000000,
2651,6.710488000,6.699879000,0.447138041,0.495692313,10.860998154,3.730125189,-2.069502831,20.684778214,-0.625000000,-4.562500000,-4.312500000,-89.502716064,15.218525887,-0.699394584,1.000000000,
2653,6.715548000,6.699879000,0.156597823,-0.009304337,9.864919662,2.586795330,-0.192244798,19.735593796,-0.625000000,-4.562500000,-4.312500000,-89.480346680,15.319198608,-0.686634839,1.000000000,
2655,6.720608000,6.699879000,-0.081333138,-0.530959606,8.847393990,-2.587541342,2.059421062,21.938282013,-0.625000000,-4.562500000,-4.312500000,-89.488830566,15.424660683,-0.683797538,1.000000000,
2657,6.725668000,6.720119000,0.077825516,-0.445173949,9.030881882,-4.580363750,2.989026070,19.968532562,-0.687500000,-4.625000000,-4.375000000,-89.511787415,15.528967857,-0.694474816,1.000000000,
2659,6.730728000,6.720119000,0.518914282,0.241135210,9.945940971,-0.189307600,2.484499454,19.729137421,-0.687500000,-4.625000000,-4.375000000,-89.519180298,15.626241684,-0.701313138,1.000000000,
2661,6.735788000,6.720119000,0.742482364,0.693901539,10.520234108,2.767542839,-3.553036928,20.341669083,-0.687500000,-4.625000000,-4.375000000,-89.509078979,15.727149010,-0.680909872,1.000000000,
2663,6.740848000,6.720119000,0.414143622,0.529527664,10.072236061,2.617384672,-1.872498035,20.038959503,-0.687500000,-4.625000000,-4.375000000,-89.485870361,15.830101967,-0.661883116,1.000000000,
2664,6.743378000,6.740359000,0.117139488,0.293615252,9.657601357,1.287429333,-2.785383701,18.813199997,-0.687500000,-4.625000000,-4.375000000,-89.480445862,15.877111435,-0.651003599,1.000000000,
2666,6.748438000,6.740359000,-0.635207236,-0.285519838,8.799684525,-1.354802489,3.668725252,19.603458405,-0.625000000,-4.562500000,-4.375000000,-89.478530884,15.973611832,-0.652287781,1.000000000,
2668,6.753498000,6.740359000,-0.956423819,-0.316624582,8.785386086,-4.125532627,0.585848272,20.913995743,-0.625000000,-4.562500000,-4.375000000,-89.495803833,16.077121735,-0.663200617,1.000000000,
2670,6.758558000,6.740359000,-0.711869836,0.169257045,9.691062927,-1.847527742,3.527724504,21.032600403,-0.625000000,-4.562500000,-4.375000000,-89.505722046,16.183141708,-0.684920371,1.000000000,
2672,6.763618000,6.760599000,-0.218594074,0.672050178,10.506036758,3.063031912,-2.461307049,19.849687576,-0.625000000,-4.562500000,-4.375000000,-89.492759705,16.283153534,-0.684253514,1.000000000,
2674,6.768678000,6.760599000,-0.141018584,0.455245376,10.222514153,1.983672500,-1.556422949,22.189538956,-0.687500000,-4.562500000,-4.375000000,-89.472518921,16.390327454,-0.683479965,1.000000000,
2675,6.771208000,6.760599000,-0.195726484,0.164554372,9.853155136,0.353460342,-4.022033691,21.062448502,-0.687500000,-4.562500000,-4.375000000,-89.468818665,16.442895889,-0.675665617,1.000000000,
2677,6.776268000,6.760599000,-0.518113077,-0.345337123,9.181008339,-0.816019893,3.853200912,19.632915497,-0.687500000,-4.562500000,-4.375000000,-89.466888428,16.540742874,-0.689122915,1.000000000,
2679,6.781328000,6.760599000,-0.786490023,-0.452734202,9.188157082,-5.058019161,0.501488209,20.382263184,-0.687500000,-4.562500000,-4.375000000,-89.487030029,16.641796112,-0.704807937,1.000000000,
2681,6.786388000,6.780839000,-0.683904409,0.069021650,9.995931625,-0.854088545,1.558023214,21.981220245,-0.625000000,-4.500000000,-4.375000000,-89.499237061,16.750305176,-0.719534934,1.000000000,
2683,6.791448000,6.780839000,-0.247685626,0.497828722,10.896691322,2.778198242,0.726413786,20.729557037,-0.625000000,-4.500000000,-4.375000000,-89.490936279,16.854974747,-0.730222464,1.000000000,
2685,6.796508000,6.780839000,0.108034641,0.302617162,10.644047737,3.348190784,-2.387255192,21.366746902,-0.625000000,-4.500000000,-4.375000000,-89.468482971,16.962146759,-0.728959680,1.000000000,
2687,6.801568000,6.780839000,0.212403074,-0.252249330,9.550267220,0.909759104,0.402883351,22.163522720,-0.625000000,-4.500000000,-4.375000000,-89.458106995,17.072158813,-0.732056499,1.000000000,
2689,6.806628000,6.801079000,0.255477279,-0.654989600,9.085740089,-2.922008276,1.292551637,18.745157242,-0.625000000,-4.562500000,-4.375000000,-89.474136353,17.169139862,-0.735572696,1.000000000,
2690,6.809158000,6.801079000,0.236291975,-0.588233650,9.083357811,-3.059239626,4.357658863,19.444007874,-0.625000000,-4.562500000,-4.375000000,-89.484077454,17.217823029,-0.745219409,1.000000000,
2692,6.814218000,6.801079000,0.185278639,-0.152370229,9.848287582,-2.799305201,-1.417013526,19.420291901,-0.625000000,-4.562500000,-4.375000000,-89.503265381,17.317132950,-0.743234217,1.000000000,
2694,6.819278000,6.801079000,0.173138618,0.531493843,10.717919350,1.481795549,1.112103701,22.438272476,-0.625000000,-4.562500000,-4.375000000,-89.502304077,17.425609589,-0.739464521,1.000000000,
2696,6.824338000,6.821319000,0.325184315,0.705489099,10.915704727,4.448054790,-0.703430414,20.551382065,-0.625000000,-4.562500000,-4.375000000,-89.479484558,17.528255463,-0.728031516,1.000000000,
2698,6.829398000,6.821319000,0.434613407,0.107652314,9.869634628,1.149843097,0.339019686,22.250602722,-0.625000000,-4.562500000,-4.375000000,-89.458213806,17.637681961,-0.726947963,1.000000000,
2700,6.834458000,6.821319000,0.515604794,-0.506896079,8.885470390,-0.740457714,-1.417658687,19.081674576,-0.625000000,-4.562500000,-4.375000000,-89.461051941,17.737031937,-0.706045151,1.000000000,
2702,6.839518000,6.821319000,0.221631050,-0.528599441,9.030932426,-3.062535048,2.187803030,16.675548553,-0.625000000,-4.562500000,-4.375000000,-89.476730347,17.824411392,-0.709852397,1.000000000,
2704,6.844578000,6.841559000,-0.466932654,0.035793722,9.783948898,-1.771779656,0.651318312,20.158185959,-0.625000000,-4.562500000,-4.375000000,-89.491043091,17.919622421,-0.703100264,1.000000000,
2706,6.849638000,6.841559000,-0.793732584,0.664659619,10.510852814,2.651427269,0.451794922,22.839267731,-0.625000000,-4.500000000,-4.312500000,-89.484146118,18.032287598,-0.710500479,1.000000000,
2707,6.852168000,6.841559000,-0.680799723,0.752888858,10.565660477,4.709468365,-0.325411618,22.519456863,-0.625000000,-4.500000000,-4.312500000,-89.469367981,18.088640213,-0.711325228,1.000000000,
2709,6.857228000,6.841559000,-0.138260096,0.252801478,9.843623161,2.840986967,0.007511167,21.076219559,-0.625000000,-4.500000000,-4.312500000,-89.446121216,18.197471619,-0.715699494,1.000000000,
2711,6.862288000,6.841559000,0.139441624,-0.457070202,8.895203590,-2.029715776,-1.658893824,18.728281021,-0.625000000,-4.500000000,-4.312500000,-89.444313049,18.294380188,-0.709405005,1.000000000,
2713,6.867348000,6.861799000,-0.239234135,-0.437984318,8.904433250,-3.133153677,0.953152061,18.652135849,-0.625000000,-4.500000000,-4.375000000,-89.465614319,18.386091232,-0.715970993,1.000000000,
2715,6.872408000,6.861799000,-0.996760786,0.135861889,9.757534027,-2.091403008,2.320882797,20.808406830,-0.625000000,-4.500000000,-4.375000000,-89.481193542,18.485074997,-0.732953072,1.000000000,
2717,6.877468000,6.861799000,-1.044894934,0.688432515,10.606020927,2.474586487,0.200531632,23.134185791,-0.625000000,-4.500000000,-4.375000000,-89.472717285,18.598941803,-0.741075695,1.000000000,
2719,6.882528000,6.861799000,-0.317017198,0.610088527,10.479722023,3.635846853,-0.014720646,22.737947464,-0.625000000,-4.500000000,-4.375000000,-89.450935364,18.715373993,-0.751164734,1.000000000,
2721,6.887588000,6.882039000,0.358536392,-0.073486574,9.529072762,2.035908699,-1.109150529,18.654390335,-0.625000000,-4.500000000,-4.375000000,-89.433944702,18.812850952,-0.744918823,1.000000000,
2723,6.892648000,6.882039000,0.205278605,-0.564202011,8.659290314,-4.025868893,-1.537348866,19.336048126,-0.625000000,-4.500000000,-4.375000000,-89.442901611,18.910854340,-0.748592973,1.000000000,
2725,6.897708000,6.882039000,-0.337228179,-0.316521078,8.947478294,-3.135435343,4.031326771,20.749128342,-0.625000000,-4.500000000,-4.375000000,-89.466606140,19.009254456,-0.755775511,1.000000000,
2726,6.900238000,6.882039000,-0.473400950,-0.004533444,9.474112511,-2.251662731,6.248928547,21.995805740,-0.625000000,-4.500000000,-4.375000000,-89.474136353,19.064367294,-0.772464871,1.000000000,
2728,6.905298000,6.902279000,-0.201355040,0.524225175,10.596488953,-0.109639108,0.191148415,21.898302078,-0.625000000,-4.500000000,-4.375000000,-89.481651306,19.172891617,-0.782311499,1.000000000,
2730,6.910358000,6.902279000,0.572640061,0.660111547,11.020756721,3.978252172,-0.463268459,21.271631241,-0.562500000,-4.500000000,-4.375000000,-89.458190918,19.283681870,-0.783103883,1.000000000,
2732,6.915418000,6.902279000,0.925377488,0.222000271,10.210549355,2.913472891,-2.709634066,19.876741409,-0.562500000,-4.500000000,-4.375000000,-89.435226440,19.381523132,-0.760388851,1.000000000,
2734,6.920478000,6.902279000,0.421067059,-0.449974507,9.121636391,-1.198831439,-1.902658939,18.184677124,-0.562500000,-4.500000000,-4.375000000,-89.432983398,19.475383759,-0.742026925,1.000000000,
2736,6.925538000,6.922519000,-0.448293954,-0.583614767,8.785637856,-3.492069721,4.091989994,20.900815964,-0.562500000,-4.500000000,-4.375000000,-89.447319031,19.575033188,-0.746384084,1.000000000,
2738,6.930598000,6.922519000,-0.666790962,-0.145311579,9.614607811,-2.475476742,2.285491228,21.226633072,-0.562500000,-4.437500000,-4.375000000,-89.468292236,19.681156158,-0.756764233,1.000000000,
2740,6.935658000,6.922519000,-0.155075699,0.359689355,10.739365578,0.482518017,1.875658751,21.145185471,-0.562500000,-4.437500000,-4.375000000,-89.473854065,19.789379120,-0.767763555,1.000000000,
2741,6.938188000,6.922519000,0.223167345,0.545562685,11.106391907,2.075645924,-3.048749924,19.876434326,-0.562500000,-4.437500000,-4.375000000,-89.469863892,19.838966370,-0.756431282,1.000000000,
2743,6.943248000,6.922519000,0.437501788,0.395576477,10.853797913,4.290577888,-0.942623973,19.834684372,-0.562500000,-4.437500000,-4.375000000,-89.445915222,19.937355042,-0.735823691,1.000000000,
2745,6.948308000,6.942759000,-0.114845879,-0.092883132,9.738823891,1.856833935,-3.472611666,19.008758545,-0.562500000,-4.437500000,-4.375000000,-89.430381775,20.034217834,-0.713265181,1.000000000,
2747,6.953368000,6.942759000,-0.920481324,-0.512249112,8.773723602,-1.960689545,4.173708916,21.518543243,-0.562500000,-4.437500000,-4.375000000,-89.437370300,20.138158798,-0.721137643,1.000000000,
2749,6.958428000,6.942759000,-1.056131482,-0.397808373,8.964058876,-4.154369831,1.455492735,20.896690369,-0.562500000,-4.437500000,-4.375000000,-89.459045410,20.244218826,-0.737669706,1.000000000,
2751,6.963488000,6.942759000,-0.449142158,0.169284865,9.979199409,0.217458844,2.898007393,21.369421005,-0.562500000,-4.437500000,-4.375000000,-89.465446472,20.350433350,-0.759482920,1.000000000,
2753,6.968548000,6.962999000,0.098186463,0.452733666,10.584724426,1.810994744,-3.333058119,20.290555954,-0.500000000,-4.437500000,-4.312500000,-89.456626892,20.452051163,-0.756208420,1.000000000,
2755,6.973608000,6.962999000,-0.033070769,0.350362331,10.241578102,3.504004240,-3.293520451,19.270114899,-0.500000000,-4.437500000,-4.312500000,-89.440628052,20.551452637,-0.745562613,1.000000000,
2757,6.978668000,6.962999000,-0.747979820,-0.118955091,9.216803551,0.183177248,1.845754027,21.086948395,-0.500000000,-4.437500000,-4.312500000,-89.429687500,20.652008057,-0.755130887,1.000000000,
2759,6.983728000,6.962999000,-1.038766742,-0.419135362,8.621062279,-3.722480536,1.625629306,22.087137222,-0.500000000,-4.437500000,-4.312500000,-89.446365356,20.764436722,-0.769297063,1.000000000,
2760,6.986258000,6.983239000,-0.771967530,-0.297522962,8.766423225,-2.668806553,5.470885277,22.225147247,-0.500000000,-4.437500000,-4.312500000,-89.453163147,20.820117950,-0.786284506,1.000000000,
2762,6.991318000,6.983239000,0.289795756,0.091022067,9.678997040,-2.718772650,1.668867707,20.921669006,-0.562500000,-4.437500000,-4.375000000,-89.467208862,20.929008484,-0.813147664,1.000000000,
2764,6.996378000,6.983239000,1.166944265,0.558143079,10.572608948,2.074594736,-1.959051967,19.624057770,-0.562500000,-4.437500000,-4.375000000,-89.466613770,21.027023315,-0.795404494,1.000000000,
2766,7.001438000,6.983239000,0.999398589,0.560369611,10.606121063,3.347554207,-4.529081821,18.807067871,-0.562500000,-4.437500000,-4.375000000,-89.445869446,21.122512817,-0.770333648,1.000000000,
2768,7.006498000,7.003479000,-0.069321550,0.105083764,9.741106033,0.857642174,-1.001990318,20.269241333,-0.562500000,-4.437500000,-4.375000000,-89.436454773,21.222110748,-0.747594833,1.000000000,
2770,7.011558000,7.003479000,-0.785333574,-0.266594082,8.959342957,-1.606237650,4.395460606,21.132783890,-0.562500000,-4.500000000,-4.312500000,-89.436561584,21.325386047,-0.756497860,1.000000000,
2772,7.016618000,7.003479000,-0.507741392,-0.311750650,8.883088112,-4.495887756,2.649402380,22.314117432,-0.562500000,-4.500000000,-4.312500000,-89.456657410,21.437915802,-0.770455718,1.000000000,
2773,7.019148000,7.003479000,0.011932579,-0.125927448,9.247933388,-2.773518562,1.911989808,21.312383652,-0.562500000,-4.500000000,-4.312500000,-89.465759277,21.491195679,-0.774285316,1.000000000,
2775,7.024208000,7.003479000,0.915929496,0.267235190,10.232097626,-0.026089165,-0.638376892,18.642568588,-0.562500000,-4.500000000,-4.312500000,-89.466636658,21.588624954,-0.768375814,1.000000000,
2777,7.029268000,7.023719000,0.896938562,0.412511349,10.722735405,1.704047799,-3.841608286,18.795940399,-0.562500000,-4.437500000,-4.312500000,-89.459068298,21.679883957,-0.737843037,1.000000000,
2779,7.034328000,7.023719000,-0.058826759,0.188248783,10.362908363,1.573204279,-0.224078745,20.008468628,-0.562500000,-4.437500000,-4.312500000,-89.446716309,21.779521942,-0.727257073,1.000000000,
2781,7.039388000,7.023719000,-0.915564001,-0.164601818,9.695778847,-1.518795371,1.629958868,21.301477432,-0.562500000,-4.437500000,-4.312500000,-89.447006226,21.883573532,-0.719876468,1.000000000,
2783,7.044448000,7.023719000,-0.799795747,-0.266903132,9.385993958,-0.418133825,3.406162262,20.546932220,-0.562500000,-4.437500000,-4.312500000,-89.449913025,21.988868713,-0.747115791,1.000000000,
2785,7.049508000,7.043959000,-0.271115720,-0.197674364,9.657550812,-2.903972626,-0.656426966,20.711185455,-0.437500000,-4.437500000,-4.375000000,-89.463478088,22.092258453,-0.753321588,1.000000000,
2787,7.054568000,7.043959000,-0.035193812,0.126301154,10.300951004,2.536302567,-1.505688429,18.021030426,-0.437500000,-4.437500000,-4.375000000,-89.459449768,22.185813904,-0.753055990,1.000000000,
2789,7.059628000,7.043959000,-0.619866192,0.209530741,10.317631721,1.342683434,-0.824339390,20.893960953,-0.437500000,-4.437500000,-4.375000000,-89.451248169,22.285324097,-0.756609738,1.000000000,
2790,7.062158000,7.043959000,-0.920627058,0.140406638,10.096014977,1.500098109,-2.388851404,21.852949142,-0.437500000,-4.437500000,-4.375000000,-89.447280884,22.339872360,-0.754135251,1.000000000,
2792,7.067218000,7.064199000,-1.027095795,-0.121533178,9.459764481,0.505624950,4.865660191,22.853895187,-0.437500000,-4.437500000,-4.375000000,-89.442832947,22.453794479,-0.773825049,1.000000000,
2794,7.072278000,7.064199000,-0.333321631,-0.288073927,9.228668213,-3.272052526,-0.178263217,19.767734528,-0.500000000,-4.437500000,-4.375000000,-89.454582214,22.557704926,-0.789035559,1.000000000,
2796,7.077338000,7.064199000,0.476598710,-0.001909565,9.652834892,-1.465121865,2.818650484,20.574052811,-0.500000000,-4.437500000,-4.375000000,-89.467948914,22.659036636,-0.805397153,1.000000000,
2798,7.082398000,7.064199000,0.643554032,0.400591999,10.389321327,0.893959045,-3.742923975,18.474510193,-0.500000000,-4.437500000,-4.375000000,-89.467872620,22.752367020,-0.787383378,1.000000000,
2800,7.087458000,7.084439000,0.090779230,0.617274463,10.544214249,3.788980961,-1.259987593,20.457931519,-0.500000000,-4.437500000,-4.375000000,-89.449615479,22.853015900,-0.769608736,1.000000000,
2802,7.092518000,7.084439000,-0.531629562,0.288460314,9.781665802,3.244386196,1.171291232,22.280828476,-0.500000000,-4.312500000,-4.375000000,-89.424957275,22.960269928,-0.764904857,1.000000000,
2804,7.097578000,7.084439000,-0.497955233,-0.338094592,8.911885262,-2.827910185,0.786327660,21.981142044,-0.500000000,-4.312500000,-4.375000000,-89.426795959,23.074628830,-0.769205689,1.000000000,
2806,7.102638000,7.084439000,0.304665089,-0.387824386,8.871323586,-1.974206686,5.402187347,20.107591629,-0.500000000,-4.312500000,-4.375000000,-89.440559387,23.176036835,-0.790732145,1.000000000,
2807,7.105168000,7.084439000,0.665915847,-0.280592322,9.200172424,-3.811768532,2.157400370,19.268171310,-0.500000000,-4.312500000,-4.375000000,-89.451118469,23.224222183,-0.792114615,1.000000000,
2809,7.110228000,7.104679000,0.874847233,0.248280853,10.177087784,-1.102982402,-2.594180822,18.888456345,-0.375000000,-4.375000000,-4.312500000,-89.463676453,23.318164825,-0.768735230,1.000000000,
2811,7.115288000,7.104679000,0.270163298,0.688718677,10.930103302,4.550029755,-0.776719749,18.913143158,-0.375000000,-4.375000000,-4.312500000,-89.444862366,23.414442062,-0.757553220,1.000000000,
2813,7.120348000,7.104679000,-0.638094306,0.426346213,10.489305496,1.840849161,-1.128327131,22.761739731,-0.375000000,-4.375000000,-4.312500000,-89.425270081,23.522268295,-0.741366029,1.000000000,
2815,7.125408000,7.104679000,-0.727194905,-0.119125150,9.517056465,1.869647741,2.791409731,22.102924347,-0.375000000,-4.375000000,-4.312500000,-89.409812927,23.635801315,-0.750200748,1.000000000,
2817,7.130468000,7.124919000,-0.225385368,-0.633559108,8.795068741,-3.684009790,1.494575143,20.121065140,-0.437500000,-4.375000000,-4.375000000,-89.418075562,23.737428665,-0.766285539,1.000000000,
2819,7.135528000,7.124919000,0.126240700,-0.543016553,9.116768837,-2.964220524,-1.118932128,17.937538147,-0.437500000,-4.375000000,-4.375000000,-89.441619873,23.830062866,-0.761505663,1.000000000,
2821,7.140588000,7.124919000,-0.385813802,0.066546865,10.158173561,0.269740283,-0.324527383,18.318040848,-0.437500000,-4.375000000,-4.375000000,-89.450370789,23.921325684,-0.761064231,1.000000000,
2823,7.145648000,7.124919000,-1.230435491,0.506928563,10.858764648,0.704066396,-1.186798096,22.677877426,-0.437500000,-4.375000000,-4.375000000,-89.448974609,24.028406143,-0.755870283,1.000000000,
2824,7.148178000,7.145159000,-1.402770996,0.590293884,10.899275780,3.057018995,3.105826139,24.035223007,-0.437500000,-4.375000000,-4.375000000,-89.440559387,24.088575363,-0.766948104,1.000000000,
2826,7.153238000,7.145159000,-0.876619756,0.247597799,10.255725861,3.542910099,1.668631434,22.196901321,-0.437500000,-4.375000000,-4.312500000,-89.418518066,24.202827454,-0.787329555,1.000000000,
2828,7.158298000,7.145159000,0.222553596,-0.316469878,9.204837799,-1.311297774,0.076496944,21.367584229,-0.437500000,-4.375000000,-4.312500000,-89.420646667,24.312747955,-0.796447039,1.000000000,
2830,7.163358000,7.145159000,0.813112855,-0.389967561,8.949760437,-0.075199127,-1.051523805,16.970394135,-0.437500000,-4.375000000,-4.312500000,-89.425941467,24.402301788,-0.789111614,1.000000000,
2832,7.168418000,7.165399000,0.028920462,-0.104338840,9.300056458,-2.658802271,-3.521805048,18.913505554,-0.437500000,-4.375000000,-4.312500000,-89.437484741,24.492927551,-0.770788789,1.000000000,
2834,7.173478000,7.165399000,-1.017082810,0.400232345,9.977068901,0.355180413,3.685364246,22.897602081,-0.437500000,-4.375000000,-4.375000000,-89.443412781,24.600500107,-0.773648322,1.000000000,
2836,7.178538000,7.165399000,-0.965436995,0.562241077,10.222514153,2.006095648,3.175944567,23.595575333,-0.437500000,-4.375000000,-4.375000000,-89.429389954,24.720045090,-0.803951561,1.000000000,
2837,7.181068000,7.165399000,-0.414927244,0.419531196,10.098449707,-0.503160596,0.723136246,24.139835358,-0.437500000,-4.375000000,-4.375000000,-89.428680420,24.780418396,-0.808719516,1.000000000,
2839,7.186128000,7.165399000,1.199347019,0.157951742,9.910196304,0.322542936,0.861857414,20.298519135,-0.437500000,-4.375000000,-4.375000000,-89.427032471,24.890583038,-0.813542962,1.000000000,
2841,7.191188000,7.185639000,1.809766173,0.048547082,9.776799202,-0.054587424,-2.720269203,16.321792603,-0.437500000,-4.375000000,-4.250000000,-89.420135498,24.971202850,-0.792653382,1.000000000,
2843,7.196248000,7.185639000,0.644830585,0.112523474,9.738672256,-1.439492702,-4.357192993,18.418966293,-0.437500000,-4.375000000,-4.250000000,-89.426376343,25.061676025,-0.764329374,1.000000000,
2845,7.201308000,7.185639000,-0.876271844,0.421856016,9.872117996,3.636924982,5.519759178,22.042669296,-0.437500000,-4.375000000,-4.250000000,-89.411735535,25.167242050,-0.767310202,1.000000000,
2847,7.206366000,7.185639000,-1.059831262,0.190664724,9.607608795,-0.411745638,0.938612521,24.261445999,-0.437500000,-4.375000000,-4.250000000,-89.401115417,25.287891388,-0.782586455,1.000000000,
2849,7.211421000,7.205874000,0.101424471,-0.280967295,9.400443077,-0.860111415,2.093659878,21.304527283,-0.437500000,-4.312500000,-4.375000000,-89.403305054,25.402132034,-0.795977414,1.000000000,
2851,7.216476000,7.205874000,0.934043586,-0.442911237,9.588697433,-0.818673790,-3.507714510,14.856727600,-0.437500000,-4.312500000,-4.375000000,-89.405250549,25.479581833,-0.774964929,1.000000000,
2853,7.221531000,7.205874000,0.053900227,-0.183511004,9.924644470,-3.132441759,-2.375329733,19.140756607,-0.437500000,-4.312500000,-4.375000000,-89.423042297,25.569467545,-0.754095137,1.000000000,
2855,7.226586000,7.205874000,-1.318260431,0.371159762,10.570426941,2.051935673,3.471784115,22.260404587,-0.437500000,-4.312500000,-4.375000000,-89.420928955,25.674484253,-0.759204566,1.000000000,
2856,7.229113000,7.226094000,-1.586343050,0.475936741,10.632383347,2.649517059,6.577301979,24.562755585,-0.437500000,-4.312500000,-4.375000000,-89.413650513,25.736057281,-0.778819203,1.000000000,
2858,7.234168000,7.226094000,-0.739442110,0.259457260,10.358293533,0.840261877,0.162117377,24.035337448,-0.375000000,-4.312500000,-4.312500000,-89.405006409,25.857831955,-0.793640435,1.000000000,
2860,7.239223000,7.226094000,0.678521991,-0.216543168,9.762552261,2.211188078,-1.757969856,18.376396179,-0.375000000,-4.312500000,-4.312500000,-89.394050598,25.957923889,-0.799030781,1.000000000,
2862,7.244278000,7.226094000,0.615650713,-0.557225466,9.209754944,-1.531836390,-5.501274586,15.546538353,-0.375000000,-4.312500000,-4.312500000,-89.398292542,26.033578873,-0.763387561,1.000000000,
2864,7.249333000,7.246314000,-0.942027211,-0.297908306,9.226435661,-1.240123153,1.123909950,19.477594376,-0.375000000,-4.312500000,-4.312500000,-89.413948059,26.127901077,-0.758104861,1.000000000,
2866,7.254388000,7.246314000,-1.992198944,0.185544148,9.586213112,0.620066345,6.827246666,24.845159531,-0.375000000,-4.312500000,-4.312500000,-89.412628174,26.245290756,-0.791192412,1.000000000,
2868,7.259443000,7.246314000,-0.861369014,0.288256258,9.967486382,-1.354104280,2.448405743,25.359283447,-0.375000000,-4.312500000,-4.312500000,-89.418876648,26.376247406,-0.817170203,1.000000000,
2870,7.264498000,7.246314000,1.307226062,0.217307329,10.360625267,1.355584621,0.221474573,19.153032303,-0.375000000,-4.312500000,-4.312500000,-89.416778564,26.480188370,-0.821747720,1.000000000,
2872,7.269553000,7.266534000,1.989761114,0.117466599,10.270072937,0.913672090,-6.651297092,15.189528465,-0.375000000,-4.312500000,-4.312500000,-89.409950256,26.556257248,-0.786083817,1.000000000,
2873,7.272081000,7.266534000,1.384354830,0.084027909,9.996031761,-0.319447339,-4.434913158,16.953615189,-0.375000000,-4.250000000,-4.375000000,-89.410453796,26.598531723,-0.770147502,1.000000000,
2875,7.277136000,7.266534000,-0.532190263,0.259958684,9.681481361,1.614261985,0.198361203,20.966533661,-0.375000000,-4.250000000,-4.375000000,-89.406311035,26.699562073,-0.756557643,1.000000000,
2877,7.282191000,7.266534000,-1.361094594,0.250276864,9.286060333,0.870990396,7.808261395,25.780233383,-0.375000000,-4.250000000,-4.375000000,-89.397552490,26.822172165,-0.786572218,1.000000000,
2879,7.287246000,7.266534000,-0.190722555,-0.137774780,8.997722626,-2.886003494,-0.739360392,22.346719742,-0.375000000,-4.250000000,-4.375000000,-89.406646729,26.940200806,-0.802838981,1.000000000,
2881,7.292301000,7.286754000,1.228085041,-0.263775438,9.462147713,-1.546854854,-1.413213730,16.378154755,-0.375000000,-4.312500000,-4.250000000,-89.420600891,27.029356003,-0.793260455,1.000000000,
2883,7.297356000,7.286754000,0.884229958,0.093348980,10.141292572,-0.514310300,-2.675014019,15.283363342,-0.375000000,-4.312500000,-4.250000000,-89.423217773,27.103361130,-0.769010186,1.000000000,
2885,7.302411000,7.286754000,-0.818185747,0.507313371,10.417967796,0.699182749,-0.901268899,22.176090240,-0.375000000,-4.312500000,-4.250000000,-89.423370361,27.207857132,-0.753180683,1.000000000,
2886,7.304938000,7.286754000,-1.357016087,0.635828316,10.491839409,2.225707293,2.417094469,24.654937744,-0.375000000,-4.312500000,-4.250000000,-89.414947510,27.269584656,-0.761196613,1.000000000,
2888,7.309993000,7.306974000,-0.894437015,0.390668720,10.053375244,2.254518509,5.963622570,24.050352097,-0.375000000,-4.312500000,-4.250000000,-89.397796631,27.394920349,-0.799102545,1.000000000,
2890,7.315048000,7.306974000,0.654293716,-0.349733233,9.271561623,-0.303584427,-2.587237597,18.170003891,-0.375000000,-4.312500000,-4.312500000,-89.392845154,27.491870880,-0.799645543,1.000000000,
2892,7.320103000,7.306974000,1.022417903,-0.604619622,9.095221519,-2.400914192,-5.123461246,15.318499565,-0.375000000,-4.312500000,-4.312500000,-89.405479431,27.574954987,-0.768935919,1.000000000,
2894,7.325158000,7.306974000,-0.576286912,-0.085656755,9.505091667,-0.519906044,-0.121707119,17.164587021,-0.375000000,-4.312500000,-4.312500000,-89.411346436,27.653074265,-0.747913301,1.000000000,
2896,7.330213000,7.327194000,-2.292257071,0.337871492,9.945940971,-1.114998937,2.727769613,25.332134247,-0.375000000,-4.312500000,-4.312500000,-89.417190552,27.770002365,-0.769430280,1.000000000,
2898,7.335268000,7.327194000,-1.840195060,0.395045042,10.222463608,0.340581566,6.743338585,26.660730362,-0.312500000,-4.250000000,-4.250000000,-89.415031433,27.904979706,-0.803080678,1.000000000,
2900,7.340323000,7.327194000,0.429160476,0.105001330,10.186718941,1.225272655,-1.445223927,18.386201859,-0.312500000,-4.250000000,-4.250000000,-89.405876160,28.006973267,-0.815924406,1.000000000,
2902,7.345378000,7.327194000,1.558293104,-0.294907749,9.807778358,-1.478720546,-4.564048767,17.583026886,-0.312500000,-4.250000000,-4.250000000,-89.412948608,28.095800400,-0.791734636,1.000000000,
2904,7.350433000,7.347414000,0.563910425,-0.068777867,9.843522072,0.610008240,-2.014588833,16.863809586,-0.312500000,-4.250000000,-4.250000000,-89.414375305,28.179466248,-0.760983109,1.000000000,
2906,7.355488000,7.347414000,-1.072879791,0.321652085,9.855438232,0.093795903,4.330280781,23.533037186,-0.375000000,-4.187500000,-4.250000000,-89.410118103,28.289346695,-0.773328960,1.000000000,
2908,7.360543000,7.347414000,-1.133356810,0.269236654,9.750587463,-0.503957748,3.457504511,26.440210342,-0.375000000,-4.187500000,-4.250000000,-89.410491943,28.418361664,-0.793236554,1.000000000,
2909,7.363071000,7.347414000,-0.441042691,0.121715881,9.698111534,1.347537160,3.738384962,23.458272934,-0.375000000,-4.187500000,-4.250000000,-89.406349182,28.477121353,-0.805921435,1.000000000,
2911,7.368126000,7.347414000,1.034358740,-0.178077608,9.533687592,0.509720206,-3.494911909,16.099407196,-0.375000000,-4.187500000,-4.250000000,-89.400695801,28.564096451,-0.793611407,1.000000000,
2913,7.373181000,7.367634000,0.872329950,-0.294808507,9.262029648,-2.430297613,-4.225402355,18.009599686,-0.375000000,-4.187500000,-4.250000000,-89.409027100,28.651000977,-0.765922606,1.000000000,
2915,7.378236000,7.367634000,-0.432185799,0.086034343,9.562282562,-1.094262838,3.363565922,21.621282578,-0.375000000,-4.187500000,-4.250000000,-89.418243408,28.751665115,-0.758151770,1.000000000,
2917,7.383291000,7.367634000,-0.848606825,0.400214612,10.110514641,-0.706659853,6.252729416,23.862260818,-0.375000000,-4.187500000,-4.250000000,-89.424018860,28.871042252,-0.790342867,1.000000000,
2919,7.388346000,7.367634000,0.250747681,0.305050194,10.432214737,-0.368110478,0.770500302,22.770973206,-0.375000000,-4.187500000,-4.250000000,-89.421791077,28.987665176,-0.800264657,1.000000000,
2921,7.393401000,7.387854000,1.390192509,0.186153188,10.634716988,2.742156506,-5.417513371,15.464885712,-0.312500000,-4.250000000,-4.312500000,-89.412261963,29.074728012,-0.770107388,1.000000000,
2923,7.398456000,7.387854000,0.560587704,0.112244405,10.115230560,2.304388046,-3.500512362,16.178867340,-0.312500000,-4.250000000,-4.312500000,-89.397262573,29.151182175,-0.739524245,1.000000000,
2925,7.403511000,7.387854000,-1.467028737,-0.038189001,9.197840691,-0.186157420,-0.352512538,23.170682907,-0.312500000,-4.250000000,-4.312500000,-89.391548157,29.256677628,-0.729390860,1.000000000,
2927,7.408566000,7.387854000,-2.096848249,-0.114505380,8.840395927,-1.317792654,7.914452076,25.168731689,-0.312500000,-4.250000000,-4.312500000,-89.395721436,29.383790970,-0.767488599,1.000000000,
2929,7.413621000,7.408074000,-0.595240712,-0.245223492,9.095322609,-2.351528883,3.524132967,21.422151566,-0.312500000,-4.187500000,-4.312500000,-89.402030945,29.495199203,-0.799434662,1.000000000,
2931,7.418676000,7.408074000,1.103187680,-0.199750602,9.850722313,-2.460041285,-4.816396236,18.090711594,-0.312500000,-4.187500000,-4.312500000,-89.420944214,29.590991974,-0.790303588,1.000000000,
2932,7.421203000,7.408074000,1.326512575,0.009839631,10.379739761,-0.299055487,-4.983818054,16.142288208,-0.312500000,-4.187500000,-4.312500000,-89.422080994,29.631198883,-0.773157358,1.000000000,
2934,7.426258000,7.408074000,0.214309305,0.500342906,10.787277222,3.159699678,-1.439988613,17.572288513,-0.312500000,-4.187500000,-4.312500000,-89.409095764,29.714950562,-0.754536629,1.000000000,
2936,7.431313000,7.428294000,-1.413825154,0.416658729,10.179620743,0.734358013,1.359521627,25.124187469,-0.312500000,-4.187500000,-4.312500000,-89.397125244,29.830339432,-0.751993835,1.000000000,
2938,7.436368000,7.428294000,-1.335703731,0.002255435,9.559899330,-0.707661390,4.108017445,24.099634171,-0.375000000,-4.187500000,-4.250000000,-89.395416260,29.958452225,-0.779277742,1.000000000,
2940,7.441423000,7.428294000,0.077565975,-0.288043022,9.428836823,-0.689253032,2.386244059,17.736684799,-0.375000000,-4.187500000,-4.250000000,-89.397460938,30.052049637,-0.800355136,1.000000000,
2942,7.446478000,7.428294000,0.768773735,-0.245007932,9.612375259,-1.795727015,-4.794580936,18.712291718,-0.375000000,-4.187500000,-4.250000000,-89.407875061,30.142971039,-0.788560867,1.000000000,
2943,7.449006000,7.428294000,0.570984960,-0.035381850,9.822076797,-0.857213676,-4.997071266,19.835109711,-0.375000000,-4.187500000,-4.250000000,-89.411010742,30.192434311,-0.772037089,1.000000000,
2945,7.454061000,7.448514000,-0.191550016,0.476732910,10.186718941,3.922786951,2.859546900,21.199977875,-0.312500000,-4.125000000,-4.312500000,-89.398086548,30.297842026,-0.767829299,1.000000000,
2947,7.459116000,7.448514000,-0.381694019,0.255273938,9.588595390,0.730784953,3.291818380,24.526641846,-0.312500000,-4.125000000,-4.312500000,-89.380157471,30.415050507,-0.779298246,1.000000000,
2949,7.464171000,7.448514000,0.468130589,-0.440275460,8.964260101,-3.586328268,-1.562631965,21.297294617,-0.312500000,-4.125000000,-4.312500000,-89.392189026,30.529087067,-0.768128157,1.000000000,
2951,7.469226000,7.448514000,1.139843583,-0.399835885,9.536170006,-2.464620829,1.007821560,14.066648483,-0.312500000,-4.125000000,-4.312500000,-89.409210205,30.607770920,-0.760575891,1.000000000,
2953,7.474281000,7.468734000,0.322684258,0.190648079,10.441696167,-1.147224903,-2.266560316,17.494760513,-0.250000000,-4.125000000,-4.250000000,-89.415641785,30.685083389,-0.744091451,1.000000000,
2955,7.479336000,7.468734000,-1.097893953,0.704820991,10.996926308,2.424247265,-0.587712824,24.105350494,-0.250000000,-4.125000000,-4.250000000,-89.409225464,30.802248001,-0.730996966,1.000000000,
2957,7.484391000,7.468734000,-1.180082202,0.702459991,10.863531113,5.766314507,4.449172020,22.819406509,-0.250000000,-4.125000000,-4.250000000,-89.376647949,30.916547775,-0.748869598,1.000000000,
2958,7.486918000,7.468734000,-0.713772178,0.345354706,10.227280617,4.686656952,5.015618801,22.416704178,-0.250000000,-4.125000000,-4.250000000,-89.362579346,30.972759247,-0.763986111,1.000000000,
2960,7.491973000,7.488954000,0.430555731,-0.638034761,8.659290314,-2.112471581,-4.216828823,19.734022141,-0.250000000,-4.125000000,-4.250000000,-89.360870361,31.074434280,-0.758121908,1.000000000,
2962,7.497028000,7.488954000,0.752634466,-0.826095581,8.389966011,-4.647778988,0.233421445,16.864828110,-0.312500000,-4.125000000,-4.250000000,-89.388435364,31.164415359,-0.750556767,1.000000000,
2964,7.502083000,7.488954000,-0.135666773,-0.049742091,9.436085701,-1.268016696,2.337874174,16.727430344,-0.312500000,-4.125000000,-4.250000000,-89.402984619,31.242637634,-0.753058553,1.000000000,
2966,7.507138000,7.488954000,-1.341527939,0.552621663,10.260490417,-0.056475125,-1.235251069,24.258443832,-0.312500000,-4.125000000,-4.250000000,-89.407638550,31.356790543,-0.758813500,1.000000000,
2968,7.512193000,7.509174000,-1.367688894,0.633393586,10.744232178,2.330343723,0.630263388,23.557670593,-0.312500000,-4.125000000,-4.250000000,-89.397445679,31.477880478,-0.757782042,1.000000000,
2970,7.517248000,7.509174000,-0.506986856,0.278642237,10.358242035,4.391397953,1.535583496,17.726715088,-0.250000000,-4.125000000,-4.250000000,-89.373214722,31.573600769,-0.778351307,1.000000000,
2972,7.522303000,7.509174000,-0.145286620,-0.366570771,8.985655785,-2.824114084,-1.612717390,22.691034317,-0.250000000,-4.125000000,-4.250000000,-89.374603271,31.677307129,-0.779235899,1.000000000,
2973,7.524831000,7.509174000,-0.091996677,-0.497512907,8.642560005,-4.486598015,-1.901854873,23.797069550,-0.250000000,-4.125000000,-4.250000000,-89.385566711,31.736740112,-0.777675033,1.000000000,
2975,7.529886000,7.509174000,0.096633732,-0.071098387,9.405108452,-2.281188488,5.381100178,19.365015030,-0.250000000,-4.125000000,-4.250000000,-89.402107239,31.839176178,-0.798054874,1.000000000,
2977,7.534941000,7.529394000,0.384773791,0.476742595,10.394189835,1.808274508,1.988106251,19.264961243,-0.312500000,-4.125000000,-4.312500000,-89.397796631,31.933240891,-0.828626454,1.000000000,
2979,7.539996000,7.529394000,0.523685038,0.479187280,10.377509117,0.861868680,-5.675118923,24.071617126,-0.312500000,-4.125000000,-4.312500000,-89.387275696,32.048950195,-0.800816238,1.000000000,
2981,7.545051000,7.529394000,0.479388356,0.279136389,10.172320366,3.966146231,-1.658871293,17.564722061,-0.312500000,-4.125000000,-4.312500000,-89.367790222,32.148761749,-0.776855350,1.000000000,
2983,7.550106000,7.529394000,-0.189361334,-0.109214358,9.259646416,0.872844160,3.337728500,18.307054520,-0.312500000,-4.125000000,-4.312500000,-89.352874756,32.234474182,-0.781537890,1.000000000,
2985,7.555161000,7.549614000,-0.870404601,-0.545295477,8.282782555,-5.664747238,-1.452736378,25.357294083,-0.187500000,-4.125000000,-4.250000000,-89.373222351,32.352951050,-0.775352538,1.000000000,
2987,7.560216000,7.549614000,-0.426445782,-0.199998155,9.286010742,-3.639117479,4.245061398,21.112066269,-0.187500000,-4.125000000,-4.250000000,-89.401687622,32.468814850,-0.790195942,1.000000000,
2989,7.565271000,7.549614000,0.553028882,0.474100828,10.932740211,1.256178141,5.084444523,17.526359558,-0.187500000,-4.125000000,-4.250000000,-89.403274536,32.555549622,-0.819389343,1.000000000,
2991,7.570326000,7.549614000,0.893993735,0.550451696,11.054269791,1.782665133,-6.105966568,23.584367752,-0.187500000,-4.125000000,-4.250000000,-89.391204834,32.666812897,-0.793261290,1.000000000,
2993,7.575381000,7.569834000,0.711722314,0.317096472,10.591773033,2.949379206,-3.276435137,20.523170471,-0.187500000,-4.062500000,-4.250000000,-89.375839233,32.777580261,-0.758111656,1.000000000,
2995,7.580436000,7.569834000,-0.001512706,-0.142916277,9.874501228,2.394793034,3.837934494,15.211032867,-0.187500000,-4.062500000,-4.250000000,-89.357261658,32.856525421,-0.761620939,1.000000000,
2996,7.582963000,7.569834000,-0.577618957,-0.412189692,9.254930496,-0.564880610,1.945021510,18.235664368,-0.187500000,-4.062500000,-4.250000000,-89.358322144,32.902172089,-0.761626065,1.000000000,
2998,7.588018000,7.569834000,-1.441161871,-0.598181188,8.659290314,-4.153902054,-1.938219190,24.151859283,-0.187500000,-4.062500000,-4.250000000,-89.381217957,33.018302917,-0.754505038,1.000000000,
3000,7.593073000,7.590054000,-1.248586416,0.028348863,9.710177422,0.054373115,4.064762115,19.899057388,-0.187500000,-4.062500000,-4.250000000,-89.390037537,33.126571655,-0.775022984,1.000000000,
3002,7.598128000,7.590054000,-0.494311839,0.440730214,10.489254951,2.990322351,3.521553993,20.589477539,-0.250000000,-4.062500000,-4.250000000,-89.376716614,33.223007202,-0.802250683,1.000000000,
3004,7.603183000,7.590054000,0.159403875,0.198089227,9.941174507,0.745021403,-6.455458164,24.477693558,-0.250000000,-4.062500000,-4.250000000,-89.370132446,33.344631195,-0.790791988,1.000000000,
3006,7.608238000,7.590054000,0.492755651,-0.090153933,9.529123306,0.667896032,0.720902801,19.044895172,-0.250000000,-4.062500000,-4.250000000,-89.368766785,33.447132111,-0.784592986,1.000000000,
3008,7.613293000,7.610274000,0.142383635,-0.240442559,9.440952301,-1.575992823,2.380131721,15.866770744,-0.250000000,-4.062500000,-4.250000000,-89.378639221,33.526939392,-0.797108769,1.000000000,
3009,7.615821000,7.610274000,-0.260706872,-0.187959835,9.364446640,-3.649225473,1.893157482,20.543062210,-0.187500000,-4.125000000,-4.250000000,-89.389953613,33.578300476,-0.800642014,1.000000000,
3011,7.620876000,7.610274000,-0.667806685,0.209778309,9.869634628,-1.587404013,-1.566286206,23.726430893,-0.187500000,-4.125000000,-4.250000000,-89.407775879,33.698715210,-0.801904082,1.000000000,
3013,7.625931000,7.610274000,-0.279110879,0.705260217,10.844316483,4.028927803,2.999150991,19.951496124,-0.187500000,-4.125000000,-4.250000000,-89.391220093,33.801776886,-0.813166440,1.000000000,
3015,7.630986000,7.610274000,0.110160090,0.471887171,10.589339256,3.746652842,-3.142642021,19.598196030,-0.187500000,-4.125000000,-4.250000000,-89.364929199,33.899120331,-0.812184513,1.000000000,
3017,7.636041000,7.630494000,0.081844859,-0.128282875,9.328853607,-0.386831224,-0.735094607,24.029314041,-0.187500000,-4.062500000,-4.250000000,-89.353897095,34.014640808,-0.801401973,1.000000000,
3019,7.641096000,7.630494000,0.198410004,-0.349624753,8.721197128,-0.584671795,2.742027998,19.050556183,-0.187500000,-4.062500000,-4.250000000,-89.350906372,34.116779327,-0.804470718,1.000000000,
3021,7.646151000,7.630494000,0.292308778,-0.328228086,8.797554016,-4.095927238,3.571662188,20.420608521,-0.187500000,-4.062500000,-4.250000000,-89.370185852,34.216316223,-0.821440339,1.000000000,
3023,7.651206000,7.630494000,0.368850857,-0.002057277,9.662569046,-3.232541561,-2.304205894,20.927812576,-0.187500000,-4.062500000,-4.250000000,-89.391479492,34.320075989,-0.803598106,1.000000000,
3024,7.653733000,7.650714000,0.314634800,0.336135775,10.277374268,-0.483192921,0.115832031,20.500740051,-0.187500000,-4.062500000,-4.250000000,-89.393226624,34.371330261,-0.799521744,1.000000000,
3026,7.658788000,7.650714000,-0.055695225,0.669468522,10.939735413,4.863358974,-1.692631960,17.589155197,-0.250000000,-4.000000000,-4.312500000,-89.369216919,34.459957123,-0.784804761,1.000000000,
3028,7.663843000,7.650714000,-0.690598667,0.195261344,10.081869125,0.580039322,0.245899081,24.841407776,-0.250000000,-4.000000000,-4.312500000,-89.353584290,34.576656342,-0.781720579,1.000000000,
3030,7.668898000,7.650714000,-0.634265125,-0.359826297,9.419304848,-2.387555122,1.136615157,21.209926605,-0.250000000,-4.000000000,-4.312500000,-89.359977722,34.689521790,-0.784273624,1.000000000,
3032,7.673953000,7.670934000,-0.094193369,-0.292961508,9.576581001,-1.085791826,3.578117371,16.833234787,-0.250000000,-4.000000000,-4.312500000,-89.367599487,34.778942108,-0.813173294,1.000000000,
3034,7.679008000,7.670934000,-0.116996907,0.004895920,9.788764954,-1.523952842,-2.624734640,21.419795990,-0.187500000,-4.000000000,-4.250000000,-89.376327515,34.875968933,-0.808056951,1.000000000,
3036,7.684063000,7.670934000,-0.517035067,0.352579564,10.270123482,1.287366271,-3.286219597,21.633159637,-0.187500000,-4.000000000,-4.250000000,-89.375976562,34.987365723,-0.797344446,1.000000000,
3038,7.689118000,7.670934000,-0.698535383,0.409643024,10.386939049,3.891433716,6.126758099,20.591787338,-0.187500000,-4.000000000,-4.250000000,-89.356704712,35.090065002,-0.823178828,1.000000000,
3040,7.694173000,7.691154000,-0.418066025,-0.102368221,9.507625580,-0.201366007,-2.138742924,22.014652252,-0.187500000,-4.000000000,-4.250000000,-89.350440979,35.198577881,-0.832178533,1.000000000,
3042,7.699228000,7.691154000,0.091511518,-0.454678953,8.897537231,-2.262563944,-0.704803288,21.956911087,-0.187500000,-4.000000000,-4.250000000,-89.361724854,35.311569214,-0.830161691,1.000000000,
3043,7.701756000,7.691154000,0.279710472,-0.373682469,9.133449554,-2.486973286,-0.776794732,17.790992737,-0.187500000,-4.000000000,-4.250000000,-89.370147705,35.355991364,-0.829719365,1.000000000,
3045,7.706811000,7.691154000,-0.047214992,0.054961439,9.841190338,-1.023681521,3.326492548,17.067443848,-0.187500000,-4.000000000,-4.250000000,-89.382064819,35.437629700,-0.841147482,1.000000000,
3047,7.711866000,7.691154000,-0.672978163,0.447914869,10.239145279,-0.681405425,-1.392486811,24.527490616,-0.187500000,-4.000000000,-4.250000000,-89.386840820,35.552062988,-0.845222116,1.000000000,
3049,7.716921000,7.711374000,-0.432848155,0.602932215,10.327314377,3.413133383,1.241985083,24.066366196,-0.187500000,-4.000000000,-4.250000000,-89.370147705,35.676990509,-0.850411952,1.000000000,
3051,7.721976000,7.711374000,0.458844244,0.217238262,9.912678719,1.236343980,1.123268962,19.047451019,-0.187500000,-4.000000000,-4.250000000,-89.350585938,35.776248932,-0.860451758,1.000000000,
3053,7.727031000,7.711374000,0.787704408,-0.361591995,9.116819382,-2.922470331,-1.754675508,19.118646622,-0.187500000,-4.000000000,-4.250000000,-89.356254578,35.870887756,-0.846946955,1.000000000,
3055,7.732086000,7.711374000,0.473997444,-0.197213262,9.162095070,-2.553923368,0.845478714,19.659360886,-0.187500000,-4.000000000,-4.250000000,-89.371360779,35.969738007,-0.835353196,1.000000000,
3057,7.737141000,7.731594000,0.032243960,0.336325973,9.912629128,0.288037062,2.639926434,19.609727859,-0.187500000,-3.937500000,-4.250000000,-89.371498108,36.067485809,-0.839065790,1.000000000,
3058,7.739668000,7.731594000,-0.117332056,0.474408299,10.174754143,0.629603028,1.256048203,20.986885071,-0.187500000,-3.937500000,-4.250000000,-89.369003296,36.119979858,-0.837479293,1.000000000,
3060,7.744723000,7.731594000,-0.090035692,0.357482672,10.348711014,0.812644958,-2.076291323,21.801656723,-0.187500000,-3.937500000,-4.250000000,-89.362236023,36.229583740,-0.821027100,1.000000000,
3062,7.749778000,7.731594000,0.028882831,0.100092806,10.177186966,1.852635741,0.046485547,18.136095047,-0.187500000,-3.937500000,-4.250000000,-89.351905823,36.326179504,-0.808702469,1.000000000,
3064,7.754833000,7.751814000,-0.288176805,-0.145267010,9.598127365,0.455663919,0.009560238,18.887136459,-0.187500000,-3.937500000,-4.250000000,-89.344963074,36.416820526,-0.799591780,1.000000000,
3066,7.759888000,7.751814000,-0.796284676,-0.276346892,9.143032074,-2.402767181,-0.217533663,22.738309860,-0.187500000,-3.937500000,-4.250000000,-89.355598450,36.527591705,-0.794789732,1.000000000,
3068,7.764943000,7.751814000,-0.709589660,-0.052497476,9.667284012,-1.107915044,3.099416256,20.367845535,-0.187500000,-3.937500000,-4.250000000,-89.366493225,36.634281158,-0.810210407,1.000000000,
3070,7.769998000,7.751814000,-0.121943638,0.221695438,10.212780952,1.808794022,2.049711943,19.354965210,-0.187500000,-3.937500000,-4.250000000,-89.360031128,36.730556488,-0.833022118,1.000000000,
3072,7.775053000,7.772034000,0.279310137,0.143308833,9.957803726,0.283092529,-3.204401970,22.770528793,-0.187500000,-3.937500000,-4.250000000,-89.357421875,36.841152191,-0.826944351,1.000000000,
3074,7.780108000,7.772034000,0.230107188,-0.073641792,9.712559700,0.450895637,-1.539918780,18.656930923,-0.125000000,-3.875000000,-4.187500000,-89.358100891,36.940570831,-0.810567319,1.000000000,
3075,7.782636000,7.772034000,-0.009805292,-0.185764819,9.664900780,-0.040122505,1.181588888,17.091232300,-0.125000000,-3.875000000,-4.187500000,-89.360290527,36.983295441,-0.810668051,1.000000000,
3077,7.787691000,7.772034000,-0.726583123,-0.231305271,9.626772881,-2.486901522,1.521176934,20.233972549,-0.125000000,-3.875000000,-4.187500000,-89.374443054,37.078948975,-0.820581377,1.000000000,
3079,7.792746000,7.772034000,-1.004856825,0.123626426,10.022345543,-1.596334100,0.154488847,22.620151520,-0.125000000,-3.875000000,-4.187500000,-89.387153625,37.190601349,-0.826657414,1.000000000,
3081,7.797801000,7.792254000,-0.417020291,0.583752513,10.601253510,3.235185623,3.110082388,21.177474976,-0.125000000,-3.937500000,-4.250000000,-89.373916626,37.297683716,-0.847054541,1.000000000,
3083,7.802856000,7.792254000,0.283087522,0.395873815,10.212830544,2.483170748,-1.205539227,21.358495712,-0.125000000,-3.937500000,-4.250000000,-89.354644775,37.403045654,-0.854064822,1.000000000,
3085,7.807911000,7.792254000,0.631542623,-0.116234310,9.495610237,-0.306254923,-2.867367506,20.725261688,-0.125000000,-3.937500000,-4.250000000,-89.348648071,37.509517670,-0.834943354,1.000000000,
3087,7.812966000,7.792254000,0.520340741,-0.209158301,9.316887856,0.263592899,2.419329166,17.374885559,-0.125000000,-3.937500000,-4.250000000,-89.346969604,37.600784302,-0.830677390,1.000000000,
3089,7.818021000,7.812474000,-0.059835229,-0.037722684,9.274094582,-1.235363960,0.900722861,19.950534821,-0.187500000,-3.875000000,-4.250000000,-89.350845337,37.695095062,-0.829289079,1.000000000,
3091,7.823076000,7.812474000,-0.501984179,0.114580534,9.500476837,-1.797434092,-0.725196004,23.501523972,-0.187500000,-3.875000000,-4.250000000,-89.358093262,37.809387207,-0.817656040,1.000000000,
3092,7.825603000,7.812474000,-0.490785569,0.190705910,9.800729752,-0.742689848,-0.267716110,21.448951721,-0.187500000,-3.875000000,-4.250000000,-89.359397888,37.863010406,-0.812274992,1.000000000,
3094,7.830658000,7.812474000,-0.226591140,0.300154567,10.353577614,1.918370724,1.998750091,18.401483536,-0.187500000,-3.875000000,-4.250000000,-89.349456787,37.956581116,-0.810263336,1.000000000,
3096,7.835713000,7.832694000,-0.213708892,0.147726357,10.074769974,0.363151878,-1.700745463,21.630928040,-0.187500000,-3.875000000,-4.250000000,-89.339523315,38.059787750,-0.800462723,1.000000000,
3098,7.840768000,7.832694000,-0.386371970,0.012056758,9.610042572,0.576798379,-0.369040221,21.856912613,-0.125000000,-3.875000000,-4.250000000,-89.332496643,38.169670105,-0.787110150,1.000000000,
3100,7.845823000,7.832694000,-0.420563757,-0.073721476,9.490894318,-0.217447460,3.415534735,19.742528915,-0.125000000,-3.875000000,-4.250000000,-89.327934265,38.270702362,-0.808627307,1.000000000,
3102,7.850878000,7.832694000,-0.228608161,-0.149975985,9.533787727,-2.175010920,0.510315657,21.586793900,-0.125000000,-3.875000000,-4.250000000,-89.338676453,38.375583649,-0.820214212,1.000000000,
3104,7.855933000,7.852914000,0.152953982,0.064433403,10.074720383,-0.905251741,-0.749837577,20.312179565,-0.125000000,-3.875000000,-4.250000000,-89.350067139,38.481449127,-0.819821417,1.000000000,
3106,7.860988000,7.852914000,0.193972290,0.383631080,10.570426941,2.658728123,0.543298006,17.960214615,-0.187500000,-3.812500000,-4.250000000,-89.341362000,38.572208405,-0.811740518,1.000000000,
3108,7.866043000,7.852914000,-0.348082960,0.300293684,10.043791771,2.457892179,-1.677286625,21.828144073,-0.187500000,-3.812500000,-4.250000000,-89.321113586,38.674716949,-0.800809443,1.000000000,
3109,7.868571000,7.852914000,-0.614126027,0.081055388,9.588747025,0.232530773,-2.437414408,23.466245651,-0.187500000,-3.812500000,-4.250000000,-89.317253113,38.733348846,-0.795800686,1.000000000,
3111,7.873626000,7.852914000,-0.580071509,-0.192922816,9.236069679,-0.715725303,1.694861412,20.881496429,-0.187500000,-3.812500000,-4.250000000,-89.319061279,38.843429565,-0.803569078,1.000000000,
3113,7.878681000,7.873134000,-0.121582881,-0.219017103,9.378945351,-0.739047408,3.960937738,18.414014816,-0.125000000,-3.812500000,-4.250000000,-89.322326660,38.935855865,-0.831304193,1.000000000,
3115,7.883736000,7.873134000,0.092939898,-0.061707925,9.607709885,-2.772137165,-2.163647413,22.028316498,-0.125000000,-3.812500000,-4.250000000,-89.337738037,39.041282654,-0.831705451,1.000000000,
3117,7.888791000,7.873134000,0.112406716,0.310033292,10.115129471,1.847508192,-0.386305064,20.510583878,-0.125000000,-3.812500000,-4.250000000,-89.338462830,39.146759033,-0.829499125,1.000000000,
3119,7.893846000,7.873134000,0.077264413,0.345696837,10.265256882,1.341115952,0.856845200,20.501199722,-0.125000000,-3.812500000,-4.250000000,-89.329246521,39.246875763,-0.828932166,1.000000000,
3121,7.898901000,7.893354000,0.144571826,0.047822434,9.848439217,-0.319212556,0.160923928,21.839595795,-0.125000000,-3.750000000,-4.187500000,-89.326126099,39.356395721,-0.822454751,1.000000000,
3123,7.903956000,7.893354000,0.390599102,-0.052140255,9.695929527,-0.611140549,1.618563890,19.510957718,-0.125000000,-3.750000000,-4.187500000,-89.329498291,39.457275391,-0.816703141,1.000000000,
3125,7.909011000,7.893354000,0.379104942,0.057530321,9.791147232,0.031500760,0.452498764,18.300565720,-0.125000000,-3.750000000,-4.187500000,-89.329170227,39.550125122,-0.813656569,1.000000000,
3127,7.914066000,7.893354000,-0.136207834,0.162259683,9.781616211,0.207028449,-3.123281956,21.224746704,-0.125000000,-3.750000000,-4.187500000,-89.327560425,39.652053833,-0.791763663,1.000000000,
3128,7.916593000,7.913574000,-0.382810920,0.157374591,9.826892853,0.716717958,-2.410962582,21.261817932,-0.125000000,-3.750000000,-4.187500000,-89.325126648,39.705123901,-0.780993104,1.000000000,
3130,7.921648000,7.913574000,-0.638922393,0.159654930,9.888799667,1.257097602,3.587294340,20.629638672,-0.187500000,-3.812500000,-4.250000000,-89.314956665,39.810329437,-0.784085810,1.000000000,
3132,7.926703000,7.913574000,-0.568765759,-0.052334219,9.564715385,-0.901777267,1.174329162,20.369159698,-0.187500000,-3.812500000,-4.250000000,-89.315116882,39.910373688,-0.803254843,1.000000000,
3134,7.931758000,7.913574000,-0.045046344,-0.159363851,9.350349426,-2.836796045,1.632954121,23.808420181,-0.187500000,-3.812500000,-4.250000000,-89.327529907,40.025547028,-0.815085888,1.000000000,
3136,7.936813000,7.933794000,0.661796033,0.071926065,9.769751549,0.383724749,-0.971462071,17.891639709,-0.187500000,-3.812500000,-4.250000000,-89.332466125,40.123310089,-0.811270893,1.000000000,
3138,7.941868000,7.933794000,0.577027321,0.147979185,10.046277046,0.706541121,-1.400725126,17.377960205,-0.062500000,-3.750000000,-4.250000000,-89.328453064,40.208496094,-0.795804143,1.000000000,
3140,7.946923000,7.933794000,-0.453649431,0.092781685,10.017681122,-1.030132651,-2.920396805,20.103630066,-0.062500000,-3.750000000,-4.250000000,-89.332504272,40.307506561,-0.769983530,1.000000000,
3142,7.951978000,7.933794000,-1.414335728,0.173536435,10.086634636,0.924975812,3.094301701,20.386426926,-0.062500000,-3.750000000,-4.250000000,-89.333053589,40.409648895,-0.784273624,1.000000000,
3143,7.954506000,7.933794000,-1.510351777,0.180671483,10.058040619,1.114698172,4.294794559,21.176107407,-0.062500000,-3.750000000,-4.250000000,-89.329750061,40.462718964,-0.798503995,1.000000000,
3145,7.959561000,7.954014000,-0.829275966,0.030919783,9.695829391,-0.444337666,1.377191782,23.940521240,-0.062500000,-3.750000000,-4.250000000,-89.330245972,40.581764221,-0.818151295,1.000000000,
3147,7.964616000,7.954014000,0.414196044,-0.083038613,9.631488800,-0.162723169,-1.679101348,19.997388840,-0.062500000,-3.750000000,-4.250000000,-89.330589294,40.687892914,-0.816192508,1.000000000,
3149,7.969671000,7.954014000,0.848845780,-0.061493095,9.795863152,-0.161470175,-0.526548147,17.186677933,-0.062500000,-3.750000000,-4.250000000,-89.332786560,40.775989532,-0.812491894,1.000000000,
3151,7.974726000,7.954014000,0.113138542,0.024071557,9.803012848,-0.868061900,0.205760166,20.861139297,-0.062500000,-3.750000000,-4.250000000,-89.337242126,40.872997284,-0.801224351,1.000000000,
3153,7.979781000,7.974234000,-0.545525074,0.178673372,9.867554665,0.197732732,0.553876042,22.586315155,-0.125000000,-3.687500000,-4.250000000,-89.338310242,40.985923767,-0.796400130,1.000000000,
3155,7.984836000,7.974234000,-0.329962134,0.245527342,9.843724251,1.644233227,2.312966347,20.639326096,-0.125000000,-3.687500000,-4.250000000,-89.333686829,41.091888428,-0.797785044,1.000000000,
3157,7.989891000,7.974234000,0.127879858,-0.042460512,9.424121857,0.188738644,-1.733799696,19.339998245,-0.125000000,-3.687500000,-4.250000000,-89.331710815,41.188793182,-0.786894977,1.000000000,
3159,7.994946000,7.974234000,0.068941876,-0.297449946,9.159612656,-3.474074125,-1.087984443,20.559436798,-0.125000000,-3.687500000,-4.250000000,-89.347854614,41.291526794,-0.772150636,1.000000000,
3160,7.997473000,7.994454000,-0.070971094,-0.204675019,9.436036110,-3.749410152,0.692608833,19.723184586,-0.125000000,-3.687500000,-4.250000000,-89.359161377,41.340816498,-0.771248937,1.000000000,
3162,8.002528000,7.994454000,-0.274942309,0.231086254,10.279603958,-0.421649367,4.747499943,20.030309677,-0.062500000,-3.687500000,-4.250000000,-89.369247437,41.438762665,-0.787851274,1.000000000,
3164,8.007583000,7.994454000,-0.104751408,0.519385576,10.732368469,0.374005824,-1.246771216,22.589508057,-0.062500000,-3.687500000,-4.250000000,-89.368896484,41.549530029,-0.782186806,1.000000000,
3166,8.012638000,7.994454000,0.352603912,0.526649833,10.651548386,4.171966553,-2.031932831,20.028341293,-0.062500000,-3.687500000,-4.250000000,-89.347381592,41.655788422,-0.764257669,1.000000000,
3168,8.017693000,8.014674000,0.324018717,0.107504278,9.791299820,2.901451349,-0.674295723,18.447572708,-0.062500000,-3.687500000,-4.250000000,-89.323181152,41.748008728,-0.752535999,1.000000000,
3169,8.020221000,8.014674000,0.030800372,-0.218827441,9.195406914,-0.378707469,-1.297631979,19.319536209,-0.062500000,-3.687500000,-4.187500000,-89.322029114,41.796272278,-0.744952142,1.000000000,
3171,8.025276000,8.014674000,-0.629211307,-0.542968333,8.571070671,-3.645840645,1.453856230,20.893987656,-0.062500000,-3.687500000,-4.187500000,-89.340042114,41.900703430,-0.739923000,1.000000000,
3173,8.030331000,8.014674000,-0.735474765,-0.176281169,9.309840202,-2.671546936,3.331486940,19.486917496,-0.062500000,-3.687500000,-4.187500000,-89.359901428,42.001052856,-0.757452428,1.000000000,
3175,8.035386000,8.014674000,-0.329835355,0.405049235,10.317832947,0.308681130,2.211814642,21.567625046,-0.062500000,-3.687500000,-4.187500000,-89.363876343,42.105468750,-0.776136458,1.000000000,
3177,8.040441000,8.034894000,0.069225334,0.555320978,10.551261902,3.050240517,-4.067041397,21.671979904,-0.062500000,-3.687500000,-4.187500000,-89.348358154,42.213802338,-0.769565225,1.000000000,
3179,8.045496000,8.034894000,0.075881198,0.207532451,10.005563736,1.784119725,-1.625988483,20.344600677,-0.062500000,-3.687500000,-4.187500000,-89.329147339,42.315902710,-0.760845661,1.000000000,
3181,8.050551000,8.034894000,-0.290057868,-0.261893183,9.247832298,-1.180174470,1.465674043,19.452331543,-0.062500000,-3.687500000,-4.187500000,-89.325996399,42.411426544,-0.770950139,1.000000000,
3183,8.055606000,8.034894000,-0.583449841,-0.385874212,9.059577942,-4.113233089,3.339519501,21.637445450,-0.062500000,-3.687500000,-4.187500000,-89.347816467,42.518535614,-0.791485310,1.000000000,
3185,8.060661000,8.055114000,-0.178336293,0.109653197,9.967537880,-1.606633663,3.183029652,21.234731674,-0.062500000,-3.687500000,-4.187500000,-89.365051270,42.626670837,-0.809288204,1.000000000,
3187,8.065716000,8.055114000,0.559926569,0.631550848,10.882595062,3.428812265,-0.604351997,20.231121063,-0.062500000,-3.687500000,-4.187500000,-89.353660583,42.730709076,-0.812918842,1.000000000,
3189,8.070771000,8.055114000,0.747625351,0.531558514,10.570630074,4.405724525,-4.949660778,19.926259995,-0.062500000,-3.687500000,-4.187500000,-89.327247620,42.828796387,-0.781543016,1.000000000,
3191,8.075826000,8.055114000,0.020078430,-0.045035578,9.419658661,1.501010537,-3.257386446,19.222122192,-0.062500000,-3.687500000,-4.187500000,-89.309669495,42.925285339,-0.754752576,1.000000000,
3193,8.080881000,8.075334000,-1.063222289,-0.547918022,8.523512840,-2.749905586,4.469328403,20.366472244,-0.062500000,-3.625000000,-4.250000000,-89.318527222,43.023853302,-0.763303041,1.000000000,
3195,8.085936000,8.075334000,-1.320362210,-0.457592636,8.838064194,-6.227987766,3.926726103,22.252500534,-0.062500000,-3.625000000,-4.250000000,-89.348487854,43.133590698,-0.791804612,1.000000000,
3197,8.090991000,8.075334000,-0.298592865,0.266710252,10.329848289,-1.148028970,3.045765400,22.182588577,-0.062500000,-3.625000000,-4.250000000,-89.364349365,43.247158051,-0.813525021,1.000000000,
3198,8.093518000,8.075334000,0.393521070,0.662288785,11.130524635,1.315745115,0.602899432,20.914468765,-0.062500000,-3.625000000,-4.250000000,-89.361083984,43.299449921,-0.818472326,1.000000000,
3200,8.098573000,8.095554000,1.215014935,0.927043378,11.478437424,6.521383762,-3.858533144,19.156431198,-0.062500000,-3.625000000,-4.250000000,-89.328132629,43.394989014,-0.796890199,1.000000000,
3202,8.103628000,8.095554000,0.696896315,0.307817996,10.058089256,4.204459190,-3.807678461,20.538604736,-0.062500000,-3.687500000,-4.187500000,-89.298667908,43.496360779,-0.769389272,1.000000000,
3204,8.108683000,8.095554000,-0.407048523,-0.569060802,8.435292244,-1.714631677,0.312119365,19.944810867,-0.062500000,-3.687500000,-4.187500000,-89.296119690,43.597423553,-0.753072202,1.000000000,
3206,8.113738000,8.095554000,-0.976337254,-0.781281590,8.196895599,-5.114417076,5.691353321,19.950237274,-0.062500000,-3.687500000,-4.187500000,-89.323852539,43.698326111,-0.774995685,1.000000000,
3208,8.118793000,8.115774000,-0.761207581,-0.183463961,9.431269646,-4.339032173,2.332830667,20.255521774,-0.062500000,-3.687500000,-4.187500000,-89.351608276,43.797668457,-0.793237388,1.000000000,
3210,8.123848000,8.115774000,-0.230421305,0.676386774,10.968633652,1.765959263,-1.328461885,21.331089020,-0.062500000,-3.562500000,-4.187500000,-89.353584290,43.904483795,-0.797125876,1.000000000,
3211,8.126376000,8.115774000,-0.041313816,0.883653522,11.373738289,4.476572990,-2.630100012,20.613437653,-0.062500000,-3.562500000,-4.187500000,-89.340339661,43.955947876,-0.793659210,1.000000000,
3213,8.131431000,8.115774000,-0.000972088,0.652817369,10.863531113,5.230854511,-1.458146453,21.131698608,-0.062500000,-3.562500000,-4.187500000,-89.306884766,44.061248779,-0.787506342,1.000000000,
3215,8.136486000,8.115774000,-0.145970836,-0.168908283,9.300308228,0.363042802,-0.052341983,21.386461258,-0.062500000,-3.562500000,-4.187500000,-89.290847778,44.166797638,-0.785655141,1.000000000,
3217,8.141541000,8.135994000,-0.224858284,-0.704907596,8.444823265,-4.494840622,2.838102341,19.579143524,-0.062500000,-3.625000000,-4.187500000,-89.307991028,44.268867493,-0.804344356,1.000000000,
3219,8.146596000,8.135994000,-0.211381882,-0.359601796,9.169244766,-4.320182323,2.718691349,19.159887314,-0.062500000,-3.625000000,-4.187500000,-89.335342407,44.362197876,-0.819570422,1.000000000,
3221,8.151651000,8.135994000,-0.244842321,0.443106860,10.525151253,0.743093431,-1.505090117,20.798402786,-0.062500000,-3.625000000,-4.187500000,-89.342613220,44.463924408,-0.823300064,1.000000000,
3223,8.156706000,8.135994000,-0.311553061,0.836191654,11.044636726,4.999208927,-1.963811517,21.899505615,-0.062500000,-3.625000000,-4.187500000,-89.318359375,44.572895050,-0.814973235,1.000000000,
3224,8.159233000,8.156214000,-0.332376271,0.712380171,10.737235069,6.159430981,-1.462575197,21.305120468,-0.062500000,-3.625000000,-4.187500000,-89.299621582,44.626167297,-0.812365532,1.000000000,
3226,8.164288000,8.156214000,-0.417216659,-0.109326072,9.221619606,1.229208589,0.723892570,21.214162827,-0.062500000,-3.562500000,-4.187500000,-89.278518677,44.730823517,-0.813408911,1.000000000,
3228,8.169343000,8.156214000,-0.404762268,-0.840574145,7.970563889,-4.420602322,2.137094975,21.026926041,-0.062500000,-3.562500000,-4.187500000,-89.296195984,44.838619232,-0.830802143,1.000000000,
3230,8.174398000,8.156214000,-0.008156486,-0.595260501,8.633078575,-7.116556644,3.487334013,20.316825867,-0.062500000,-3.562500000,-4.187500000,-89.335205078,44.940597534,-0.843587875,1.000000000,
3232,8.179453000,8.176434000,0.491146415,0.414735526,10.570426941,-0.923587799,1.075090170,18.344375610,-0.062500000,-3.562500000,-4.187500000,-89.352783203,45.035602570,-0.855905771,1.000000000,
3234,8.184508000,8.176434000,0.497415483,1.086406946,11.735746384,3.054732084,-2.517247200,21.842773438,-0.062500000,-3.562500000,-4.187500000,-89.338905334,45.136802673,-0.837001145,1.000000000,
3236,8.189563000,8.176434000,0.204551890,0.848183513,11.199580193,6.041023254,-3.111907959,21.639518738,-0.062500000,-3.562500000,-4.187500000,-89.303466797,45.246868134,-0.817705572,1.000000000,
3238,8.194618000,8.176434000,-0.061538383,-0.097359337,9.407440186,1.729144335,1.416365385,20.358243942,-0.062500000,-3.562500000,-4.187500000,-89.281562805,45.350780487,-0.813615561,1.000000000,
3240,8.199673000,8.196654000,-0.092772454,-0.857174814,8.053917885,-4.029715538,1.048355460,18.628704071,-0.062500000,-3.562500000,-4.187500000,-89.294448853,45.446838379,-0.810024261,1.000000000,
3241,8.202201000,8.196654000,-0.133809566,-0.835722506,7.996776104,-5.334727287,2.501361609,19.370620728,-0.062500000,-3.562500000,-4.125000000,-89.309753418,45.495300293,-0.813671947,1.000000000,
3243,8.207256000,8.196654000,-0.324428797,-0.268968493,9.095322609,-3.821472645,0.209322229,18.645463943,-0.062500000,-3.562500000,-4.125000000,-89.336547852,45.589344025,-0.814780235,1.000000000,
3245,8.212311000,8.196654000,-0.536534667,0.564477503,10.649166107,0.939538658,2.051213026,21.859537125,-0.062500000,-3.562500000,-4.125000000,-89.343803406,45.694858551,-0.818988085,1.000000000,
3247,8.217366000,8.196654000,-0.373098344,0.754968405,11.182950974,4.252193451,-1.900161624,21.904525757,-0.062500000,-3.562500000,-4.125000000,-89.325210571,45.805759430,-0.813026369,1.000000000,
3249,8.222421000,8.216874000,0.164116591,0.233600914,10.372490883,2.158706427,-0.338982970,21.640361786,-0.062500000,-3.562500000,-4.125000000,-89.304084778,45.916027069,-0.807343125,1.000000000,
3251,8.227476000,8.216874000,0.385929525,-0.399907589,9.281093597,-1.466161966,0.272998631,18.068077087,-0.062500000,-3.562500000,-4.125000000,-89.302841187,46.009967804,-0.800073385,1.000000000,
3253,8.232531000,8.216874000,-0.147494808,-0.507341862,9.014402390,-3.882146835,0.334888041,18.528589249,-0.062500000,-3.562500000,-4.125000000,-89.323501587,46.100788116,-0.796027839,1.000000000,
3255,8.237586000,8.216874000,-0.812156856,0.092832185,9.755505562,-0.945912063,1.156415462,21.797601700,-0.062500000,-3.562500000,-4.125000000,-89.337409973,46.205879211,-0.798777223,1.000000000,
3257,8.242641000,8.237094000,-0.824597180,0.635930896,10.558664322,3.330411911,0.366696745,22.030965805,-0.062500000,-3.562500000,-4.125000000,-89.326461792,46.316085815,-0.807898164,1.000000000,
3258,8.245168000,8.237094000,-0.570638061,0.631262898,10.544366837,4.231471062,1.199289083,22.305671692,-0.062500000,-3.562500000,-4.125000000,-89.314079285,46.371894836,-0.813977599,1.000000000,
3260,8.250223000,8.237094000,0.067354694,0.078799956,9.746073723,1.140436769,-1.049616575,21.516952515,-0.062500000,-3.562500000,-4.125000000,-89.299728394,46.481655121,-0.819423497,1.000000000,
3262,8.255278000,8.237094000,0.458300024,-0.507038176,8.916650772,-2.944679260,-0.052991662,19.589244843,-0.062500000,-3.562500000,-4.125000000,-89.309333801,46.580863953,-0.818149567,1.000000000,
3264,8.260333000,8.257314000,0.421183378,-0.371279508,9.145415306,-3.915429831,1.613954902,18.040981293,-0.062500000,-3.562500000,-4.125000000,-89.334098816,46.672714233,-0.821032226,1.000000000,
3266,8.265388000,8.257314000,-0.011985552,0.293247968,10.155691147,-1.148497343,1.245847464,19.657325745,0.000000000,-3.500000000,-4.187500000,-89.347717285,46.768222809,-0.821727276,1.000000000,
3268,8.270443000,8.257314000,-0.458368152,0.793337822,10.932537079,3.382273197,-1.396976829,21.588968277,0.000000000,-3.500000000,-4.187500000,-89.334060669,46.875244141,-0.810060143,1.000000000,
3270,8.275498000,8.257314000,-0.546120882,0.645541668,10.649166107,4.946015358,-0.447394550,22.278423309,0.000000000,-3.500000000,-4.187500000,-89.303909302,46.986442566,-0.803837180,1.000000000,
3272,8.280553000,8.277534000,-0.215243265,-0.104630239,9.338537216,1.616665363,-0.115410961,21.200229645,0.000000000,-3.500000000,-4.187500000,-89.281738281,47.093353271,-0.802704990,1.000000000,
3274,8.285608000,8.277534000,0.162212834,-0.706924319,8.234922409,-4.101681232,0.810442507,20.321886063,-0.062500000,-3.562500000,-4.187500000,-89.293975830,47.196369171,-0.807315826,1.000000000,
3275,8.288136000,8.277534000,0.253231108,-0.749803722,8.225390434,-5.611365795,1.577797174,18.823328018,-0.062500000,-3.562500000,-4.187500000,-89.310333252,47.243419647,-0.810314536,1.000000000,
3277,8.293191000,8.277534000,0.144579038,-0.106823191,9.409823418,-4.200860977,3.060788155,19.104520798,-0.062500000,-3.562500000,-4.187500000,-89.340133667,47.338367462,-0.822150767,1.000000000,
3279,8.298246000,8.277534000,-0.155825093,0.731391490,11.039770126,0.599290252,-0.516071379,21.200006485,-0.062500000,-3.562500000,-4.187500000,-89.346466064,47.440948486,-0.819227159,1.000000000,
3281,8.303301000,8.297754000,-0.255715489,1.002846122,11.630694389,5.089225292,-2.741904736,22.066469193,-0.062500000,-3.437500000,-4.187500000,-89.317832947,47.550964355,-0.803220689,1.000000000,
3283,8.308356000,8.297754000,-0.294846654,0.433589101,10.591722488,5.013904095,-1.106659293,20.393842697,-0.062500000,-3.437500000,-4.187500000,-89.282020569,47.654514313,-0.793003440,1.000000000,
3285,8.313411000,8.297754000,-0.483878165,-0.507246614,8.864024162,-0.687503636,1.790021300,20.763521194,-0.062500000,-3.437500000,-4.187500000,-89.269905090,47.757595062,-0.795968056,1.000000000,
3287,8.318466000,8.297754000,-0.504620969,-0.843009233,8.125306129,-4.513219357,2.078505039,20.788465500,-0.062500000,-3.437500000,-4.187500000,-89.292320251,47.863479614,-0.809375286,1.000000000,
3289,8.323521000,8.317974000,-0.135627151,-0.311808854,8.992956161,-2.759616375,2.707854509,19.716651917,-0.062500000,-3.437500000,-4.125000000,-89.315444946,47.963256836,-0.822396636,1.000000000,
3291,8.328576000,8.317974000,0.113310486,0.390903831,10.274990082,0.673371434,-1.742280245,19.902706146,-0.062500000,-3.437500000,-4.125000000,-89.319099426,48.061866760,-0.820451558,1.000000000,
3293,8.333631000,8.317974000,-0.147957146,0.624214888,10.713456154,2.723506927,-2.233783722,21.580772400,-0.062500000,-3.437500000,-4.125000000,-89.310836792,48.166931152,-0.809607565,1.000000000,
3295,8.338686000,8.317974000,-0.504939437,0.254764676,10.286906242,1.172516584,1.497955680,21.374279022,-0.062500000,-3.437500000,-4.125000000,-89.297477722,48.273262024,-0.819133222,1.000000000,
3296,8.341213000,8.338194000,-0.543101728,-0.045432292,9.874651909,-0.019883785,2.305610895,21.570766449,-0.062500000,-3.437500000,-4.125000000,-89.296455383,48.327251434,-0.828308821,1.000000000,
3298,8.346268000,8.338194000,-0.135410845,-0.319200724,9.483745575,-3.193562984,1.479390860,21.248979568,0.000000000,-3.437500000,-4.187500000,-89.310447693,48.433624268,-0.841683745,1.000000000,
3300,8.351323000,8.338194000,0.444439203,-0.018813932,9.907913208,-1.186072230,0.632789373,19.023952484,0.000000000,-3.437500000,-4.187500000,-89.323173523,48.531745911,-0.846887231,1.000000000,
3302,8.356378000,8.338194000,0.380429745,0.436182201,10.479925156,2.065531731,-1.513207197,18.678283691,0.000000000,-3.437500000,-4.187500000,-89.317993164,48.622703552,-0.832021415,1.000000000,
3304,8.361433000,8.358414000,-0.294131249,0.459904492,10.270225525,3.952449083,-2.333891153,21.899991989,0.000000000,-3.437500000,-4.187500000,-89.296119690,48.728935242,-0.813014448,1.000000000,
3306,8.366488000,8.358414000,-0.620324433,0.026416987,9.331286430,2.266276598,1.164036870,23.059764862,0.000000000,-3.437500000,-4.125000000,-89.275817871,48.844482422,-0.806815445,1.000000000,
3308,8.371543000,8.358414000,-0.174811974,-0.511726797,8.392398834,-1.922245383,2.612106085,19.770221710,0.000000000,-3.437500000,-4.125000000,-89.279762268,48.948074341,-0.824717462,1.000000000,
3310,8.376598000,8.358414000,0.407487065,-0.623620689,8.375820160,-6.317689896,2.499702215,19.673604965,0.000000000,-3.437500000,-4.125000000,-89.311714172,49.046131134,-0.835400999,1.000000000,
3311,8.379126000,8.358414000,0.539857566,-0.385464251,8.926283836,-5.729081631,0.829549730,19.051576614,0.000000000,-3.437500000,-4.125000000,-89.328086853,49.093711853,-0.835202873,1.000000000,
3313,8.384181000,8.378634000,0.371341348,0.400334507,10.570528030,-0.536667645,-0.789879382,18.434921265,0.000000000,-3.375000000,-4.125000000,-89.342033386,49.186111450,-0.824459612,1.000000000,
3315,8.389236000,8.378634000,-0.129074603,0.933665574,11.549926758,3.670613766,-1.416588306,20.575439453,0.000000000,-3.375000000,-4.125000000,-89.325668335,49.286487579,-0.811096728,1.000000000,
3317,8.394291000,8.378634000,-0.606316626,0.657281876,11.049351692,3.746692181,-0.347040713,21.958974838,0.000000000,-3.375000000,-4.125000000,-89.298873901,49.395633698,-0.801600099,1.000000000,
3319,8.399346000,8.378634000,-0.754867315,-0.097820267,9.717276573,1.605069518,0.022367535,20.130887985,0.000000000,-3.375000000,-4.125000000,-89.279632568,49.498176575,-0.802233636,1.000000000,
3321,8.404401000,8.398854000,-0.599752247,-0.628944397,8.695137024,-3.040959358,1.848599911,21.461757660,0.000000000,-3.375000000,-4.125000000,-89.286872864,49.602394104,-0.815425754,1.000000000,
3323,8.409456000,8.398854000,-0.169781715,-0.407153010,8.878624916,-2.760195017,0.407152295,19.981658936,0.000000000,-3.375000000,-4.125000000,-89.306121826,49.704162598,-0.822560668,1.000000000,
3324,8.411983000,8.398854000,0.043317072,-0.121197030,9.288494110,-1.353140235,2.236221075,19.910629272,0.000000000,-3.375000000,-4.125000000,-89.311378479,49.753952026,-0.829703987,1.000000000,
3326,8.417038000,8.398854000,0.241687313,0.393424690,10.079638481,0.797961354,-0.722073615,20.214086533,0.000000000,-3.375000000,-4.125000000,-89.313446045,49.854904175,-0.835645199,1.000000000,
3328,8.422093000,8.419074000,-0.012105511,0.352771908,10.124914169,1.615662694,-2.042428017,21.381240845,0.000000000,-3.375000000,-4.125000000,-89.310081482,49.958969116,-0.824218810,1.000000000,
3330,8.427148000,8.419074000,-0.301738441,0.021517411,9.748304367,0.018904062,-1.526656628,20.177127838,0.000000000,-3.312500000,-4.125000000,-89.311218262,50.061340332,-0.815915883,1.000000000,
3332,8.432203000,8.419074000,-0.466726720,-0.185757503,9.371796608,-1.736563802,3.319667101,20.255361557,0.000000000,-3.312500000,-4.125000000,-89.320816040,50.162456512,-0.830694497,1.000000000,
3334,8.437258000,8.419074000,-0.379608154,-0.131027669,9.524408340,-2.541658878,1.919812918,20.626819611,0.000000000,-3.312500000,-4.125000000,-89.338058472,50.265197754,-0.844276130,1.000000000,
3336,8.442313000,8.439294000,-0.083362639,0.176234290,10.244063377,-1.099818468,1.130800724,21.381484985,0.000000000,-3.312500000,-4.125000000,-89.349327087,50.373081207,-0.856401026,1.000000000,
3338,8.447368000,8.439294000,0.219445571,0.438265234,10.846953392,2.169243097,-1.809509635,20.012653351,0.000000000,-3.312500000,-4.125000000,-89.345359802,50.472866058,-0.850437582,1.000000000,
3340,8.452423000,8.439294000,0.192136407,0.350138992,10.670612335,2.622848272,-1.567809463,20.459976196,0.000000000,-3.312500000,-4.125000000,-89.326995850,50.574848175,-0.834972382,1.000000000,
3342,8.457478000,8.439294000,-0.246234715,0.021470971,9.817461014,1.339309096,0.330233276,20.374809265,0.000000000,-3.312500000,-4.125000000,-89.312759399,50.676017761,-0.824273467,1.000000000,
3344,8.462533000,8.459514000,-0.669574976,-0.295366079,9.083509445,-0.924577117,1.601610065,20.940811157,0.000000000,-3.312500000,-4.125000000,-89.315948486,50.780818939,-0.829422235,1.000000000,
3346,8.467588000,8.459514000,-0.588026643,-0.288166165,9.097756386,-1.992303491,1.874397755,21.694421768,0.000000000,-3.312500000,-4.062500000,-89.328300476,50.889442444,-0.843917489,1.000000000,
3348,8.472643000,8.459514000,-0.006832886,0.090756379,9.772133827,0.235669032,0.267943740,20.617984772,0.000000000,-3.312500000,-4.062500000,-89.334259033,50.995151520,-0.851318777,1.000000000,
3349,8.475171000,8.459514000,0.246659607,0.298033148,10.113000870,1.094666839,0.057258036,19.896169662,0.000000000,-3.312500000,-4.062500000,-89.333274841,51.044845581,-0.853188753,1.000000000,
3351,8.480226000,8.459514000,0.290322423,0.374290109,10.210701942,1.845040560,-0.787757397,20.296720505,0.000000000,-3.312500000,-4.062500000,-89.327598572,51.145915985,-0.845165789,1.000000000,
3353,8.485281000,8.479734000,-0.069080800,0.138389215,9.781716347,0.662159324,0.008917158,21.385721207,0.000000000,-3.312500000,-4.062500000,-89.321853638,51.252914429,-0.832836032,1.000000000,
3355,8.490336000,8.479734000,-0.159622014,-0.052185159,9.433805466,-0.450828284,1.201393604,20.575460434,0.000000000,-3.312500000,-4.062500000,-89.322372437,51.358665466,-0.828551292,1.000000000,
3357,8.495391000,8.479734000,-0.027948085,-0.028205460,9.414589882,-1.567124724,0.593914330,19.739645004,0.000000000,-3.312500000,-4.062500000,-89.328872681,51.456707001,-0.823701382,1.000000000,
3358,8.497918000,8.479734000,-0.037022490,0.028959045,9.509907722,-0.946413219,-0.145872623,19.190137863,0.000000000,-3.312500000,-4.062500000,-89.331794739,51.504653931,-0.818863392,1.000000000,
3360,8.502973000,8.499954000,-0.303339183,0.262296498,9.900713921,0.024856392,0.208054766,20.499208450,0.000000000,-3.312500000,-4.062500000,-89.333183289,51.605304718,-0.807865679,1.000000000,
3362,8.508028000,8.499954000,-0.469528437,0.395512909,10.186820984,1.482322693,1.671282291,22.357057571,0.000000000,-3.250000000,-4.125000000,-89.320983887,51.715400696,-0.813736856,1.000000000,
3364,8.513083000,8.499954000,-0.082346894,0.250325769,9.989034653,0.707938433,0.674708724,22.763771057,0.000000000,-3.250000000,-4.125000000,-89.307197571,51.828002930,-0.820074201,1.000000000,
3366,8.518138000,8.499954000,0.577377677,-0.025827697,9.667334557,-0.283906013,-0.650669217,19.685329437,0.000000000,-3.250000000,-4.125000000,-89.302062988,51.930580139,-0.811675608,1.000000000,
3368,8.523193000,8.520174000,0.504789650,-0.133073330,9.538655281,-0.846256912,-0.590260148,17.427642822,0.000000000,-3.250000000,-4.125000000,-89.303794861,52.018981934,-0.800484955,1.000000000,
3370,8.528248000,8.520174000,-0.357246876,0.014313540,9.669817924,-0.846646488,-0.904121876,20.190738678,0.000000000,-3.250000000,-4.062500000,-89.308715820,52.115104675,-0.784931123,1.000000000,
3372,8.533303000,8.520174000,-0.908997893,0.242805362,10.015347481,0.977628469,2.290480137,22.576934814,0.000000000,-3.250000000,-4.062500000,-89.305953979,52.228084564,-0.791727781,1.000000000,
3374,8.538358000,8.520174000,-0.551777065,0.219174936,10.048507690,1.350273848,0.659681141,21.361385345,0.000000000,-3.250000000,-4.062500000,-89.296470642,52.337219238,-0.804252148,1.000000000,
3375,8.540886000,8.520174000,-0.164314002,0.093031682,9.903147697,0.599245131,0.354767919,21.063581467,0.000000000,-3.250000000,-4.062500000,-89.293853760,52.389869690,-0.808589756,1.000000000,
3377,8.545941000,8.540394000,0.368020296,-0.211763605,9.510008812,-0.583571136,-0.275901496,19.573217392,0.000000000,-3.187500000,-4.125000000,-89.297111511,52.490554810,-0.814366996,1.000000000,
3379,8.550996000,8.540394000,0.166504025,-0.242810756,9.471880913,-2.097456217,-1.618473291,17.985273361,0.000000000,-3.187500000,-4.125000000,-89.310905457,52.582115173,-0.802537620,1.000000000,
3381,8.556051000,8.540394000,-0.296577752,0.095320024,9.810413361,-0.263212144,2.186616898,21.183603287,0.000000000,-3.187500000,-4.125000000,-89.319854736,52.683269501,-0.803881586,1.000000000,
3383,8.561106000,8.540394000,-0.460046887,0.354945153,10.163091660,0.219544023,0.656424701,21.813966751,0.000000000,-3.187500000,-4.125000000,-89.323646545,52.792556763,-0.811180353,1.000000000,
3385,8.566161000,8.560614000,-0.088473305,0.288380325,10.189152718,1.380009770,1.654975653,21.196798325,0.000000000,-3.250000000,-4.125000000,-89.315902710,52.898410797,-0.823696256,1.000000000,
3387,8.571216000,8.560614000,0.300362587,0.016905533,9.853155136,-0.135819897,-2.173319101,19.781953812,0.000000000,-3.250000000,-4.125000000,-89.311386108,52.999855042,-0.816926837,1.000000000,
3389,8.576271000,8.560614000,0.236644268,-0.126023039,9.591029167,-0.445041984,-0.667942047,18.614650726,0.000000000,-3.250000000,-4.125000000,-89.313957214,53.092670441,-0.799458623,1.000000000,
3391,8.581326000,8.560614000,-0.190238729,0.002608651,9.536220551,-0.373409688,1.028723717,19.471521378,0.000000000,-3.250000000,-4.125000000,-89.316719055,53.190238953,-0.794347405,1.000000000,
3392,8.583853000,8.580834000,-0.456180722,0.107414551,9.550518036,-0.809310317,1.388590813,20.580043793,0.000000000,-3.250000000,-4.125000000,-89.319847107,53.241699219,-0.793888032,1.000000000,
3394,8.588908000,8.580834000,-0.647254646,0.197853863,9.669716835,-0.769599676,1.066195846,21.527536392,0.000000000,-3.125000000,-4.062500000,-89.327033997,53.348861694,-0.803903759,1.000000000,
3396,8.593963000,8.580834000,-0.365794271,0.200223476,9.867503166,0.177786976,0.390289456,20.768846512,0.000000000,-3.125000000,-4.062500000,-89.327438354,53.453552246,-0.813912690,1.000000000,
3398,8.599018000,8.580834000,0.049400225,0.178850472,9.977120399,0.763185740,-1.089562535,19.822191238,0.000000000,-3.125000000,-4.062500000,-89.325386047,53.554775238,-0.815787792,1.000000000,
3400,8.604073000,8.601054000,0.101727985,0.155069783,9.903247833,0.380501151,0.894917130,20.090457916,0.000000000,-3.125000000,-4.062500000,-89.322555542,53.655471802,-0.825977743,1.000000000,
3402,8.609128000,8.601054000,-0.215322495,0.097807907,9.772184372,-0.544323385,0.459623277,20.327394485,0.000000000,-3.125000000,-4.125000000,-89.323860168,53.755172729,-0.834746897,1.000000000,
3404,8.614183000,8.601054000,-0.397538275,0.145436957,9.757887840,-0.887599826,0.473779917,21.757852554,0.000000000,-3.125000000,-4.125000000,-89.326057434,53.862098694,-0.846661747,1.000000000,
3406,8.619238000,8.601054000,-0.219410583,0.216970250,9.905580521,0.566024959,0.420876831,20.737382889,0.000000000,-3.125000000,-4.125000000,-89.323471069,53.966407776,-0.854770124,1.000000000,
3408,8.624293000,8.621274000,-0.046832312,0.178880706,9.910345078,0.871497214,-0.859163642,18.753553391,0.000000000,-3.125000000,-4.125000000,-89.316329956,54.062362671,-0.860538840,1.000000000,
3410,8.629348000,8.621274000,-0.199036390,0.095410094,9.674634933,0.095510706,1.190552950,21.316347122,0.000000000,-3.187500000,-4.062500000,-89.313179016,54.166622162,-0.869646251,1.000000000,
3411,8.631876000,8.621274000,-0.273419470,0.076318204,9.657954216,-0.590026498,1.034410715,21.526178360,0.000000000,-3.187500000,-4.062500000,-89.313301086,54.220497131,-0.875635326,1.000000000,
3413,8.636931000,8.621274000,-0.127169415,0.045539498,9.683813095,-0.025896672,2.001555443,21.090272903,0.000000000,-3.187500000,-4.062500000,-89.311256409,54.326049805,-0.890736938,1.000000000,
3415,8.641986000,8.621274000,0.273632824,-0.004449426,9.791047096,-0.287827283,-1.237033963,19.438884735,0.000000000,-3.187500000,-4.062500000,-89.311660767,54.426342010,-0.888803780,1.000000000,
3417,8.647041000,8.641494000,0.267243356,0.043024682,9.929511070,-0.083010241,-0.517139852,18.882680893,0.000000000,-3.125000000,-4.062500000,-89.311477661,54.521911621,-0.873398185,1.000000000,
3419,8.652096000,8.641494000,-0.369641632,0.140484944,10.041511536,0.611391723,-0.433423668,19.505001068,0.000000000,-3.125000000,-4.062500000,-89.308509827,54.617111206,-0.861773551,1.000000000,
3421,8.657151000,8.641494000,-0.940319777,0.140285641,9.984370232,-0.067235433,1.576118827,22.810575485,0.000000000,-3.125000000,-4.062500000,-89.306770325,54.726486206,-0.873924136,1.000000000,
3423,8.662206000,8.641494000,-0.581295609,0.130929515,9.898583412,0.321740627,1.419256330,22.865747452,0.000000000,-3.125000000,-4.062500000,-89.302368164,54.842342377,-0.888424635,1.000000000,
3425,8.667261000,8.661714000,0.326728404,0.086133949,9.860152245,0.467401206,1.177805662,19.826076508,0.000000000,-3.125000000,-4.062500000,-89.299354553,54.944705963,-0.902884185,1.000000000,
3427,8.672316000,8.661714000,0.683317542,-0.001902098,9.767217636,-0.021955911,-1.016336441,19.113224030,0.000000000,-3.125000000,-4.062500000,-89.298545837,55.040512085,-0.891157031,1.000000000,
3428,8.674843000,8.661714000,0.510560095,0.012363717,9.729089737,-0.372300535,-1.958112597,20.024288177,0.000000000,-3.125000000,-4.062500000,-89.298927307,55.090503693,-0.881410897,1.000000000,
3430,8.679898000,8.661714000,-0.073819153,0.119380064,9.798246384,0.384815603,-0.571737647,20.724258423,0.000000000,-3.125000000,-4.062500000,-89.296318054,55.192749023,-0.865791857,1.000000000,
3432,8.684953000,8.681934000,-0.459922105,0.143111333,9.750587463,1.104385853,1.849825025,20.576099396,0.000000000,-3.125000000,-4.062500000,-89.290428162,55.296836853,-0.865293205,1.000000000,
3434,8.690008000,8.681934000,-0.470788032,-0.018886827,9.512290001,-1.200829744,0.335505873,20.477937698,0.000000000,-3.062500000,-4.062500000,-89.294296265,55.399108887,-0.857529819,1.000000000,
3436,8.695063000,8.681934000,-0.341271102,-0.026004050,9.531353951,-1.085700154,0.558038175,20.034093857,0.000000000,-3.062500000,-4.062500000,-89.305244446,55.502117157,-0.858863592,1.000000000,
3438,8.700118000,8.681934000,-0.210194245,0.155045956,9.838807106,0.028060639,1.292842627,20.633613586,0.000000000,-3.062500000,-4.062500000,-89.310638428,55.602600098,-0.863180757,1.000000000,
3440,8.705173000,8.702154000,0.015991461,0.271860778,10.007998466,0.270673126,-0.453314334,21.202711105,0.000000000,-3.062500000,-4.062500000,-89.312721252,55.709285736,-0.862694025,1.000000000,
3441,8.707701000,8.702154000,0.123655364,0.250411928,9.969970703,0.738785446,-0.878129661,20.301446915,0.000000000,-3.062500000,-4.062500000,-89.309440613,55.760051727,-0.855847657,1.000000000,
3443,8.712756000,8.702154000,0.120171100,0.112238698,9.767419815,0.309484273,-0.056068890,19.184631348,0.000000000,-3.062500000,-4.062500000,-89.304840088,55.858497620,-0.845891595,1.000000000,
3445,8.717811000,8.702154000,-0.216680110,-0.035590596,9.517258644,-0.842506170,0.272886783,20.415672302,0.000000000,-3.062500000,-4.062500000,-89.305114746,55.957477570,-0.835412979,1.000000000,
3447,8.722866000,8.702154000,-0.513713479,-0.014254976,9.543471336,-1.617183447,0.054141097,20.684617996,0.000000000,-3.062500000,-4.062500000,-89.313995361,56.060890198,-0.834980905,1.000000000,
3449,8.727921000,8.722374000,-0.473756045,0.169176176,9.843724251,-0.537961841,1.323071480,20.785987854,0.000000000,-3.000000000,-4.000000000,-89.316932678,56.163414001,-0.846550763,1.000000000,
3451,8.732976000,8.722374000,-0.199523896,0.254999369,10.034362793,0.508646250,0.978034973,20.864665985,0.000000000,-3.000000000,-4.000000000,-89.314285278,56.268543243,-0.860337377,1.000000000,
3453,8.738031000,8.722374000,0.068595953,0.123966165,9.977220535,0.148828566,0.264883488,20.856548309,0.000000000,-3.000000000,-4.000000000,-89.310417175,56.374099731,-0.867984593,1.000000000,
3455,8.743086000,8.722374000,0.170726925,-0.028493065,9.805647850,-0.139376417,-1.018534422,19.262760162,0.000000000,-3.000000000,-4.000000000,-89.306434631,56.473484039,-0.862378061,1.000000000,
3457,8.748141000,8.742594000,-0.014076170,-0.016584596,9.757938385,-1.052339315,0.305164456,20.357759476,0.000000000,-3.062500000,-4.062500000,-89.310562134,56.572406769,-0.850925982,1.000000000,
3458,8.750668000,8.742594000,-0.169763342,0.042957481,9.774619102,0.323155075,0.954445422,20.299942017,0.000000000,-3.062500000,-4.062500000,-89.310112000,56.623188019,-0.848799884,1.000000000,
3460,8.755723000,8.742594000,-0.461581320,0.114319623,9.879469872,0.176232174,1.698264599,20.430313110,0.000000000,-3.062500000,-4.062500000,-89.313156128,56.726211548,-0.853311718,1.000000000,
3462,8.760778000,8.742594000,-0.423003525,0.123894274,9.927026749,0.157878786,0.845337749,21.638362885,0.000000000,-3.062500000,-4.062500000,-89.310966492,56.834373474,-0.867178559,1.000000000,
3464,8.765833000,8.762814000,-0.118511721,0.061997972,9.950857162,-0.654334664,-0.670700550,21.383245468,0.000000000,-3.062500000,-4.062500000,-89.311088562,56.940929413,-0.872190773,1.000000000,
3466,8.770888000,8.762814000,0.145624727,0.095466986,10.050840378,0.367837667,-0.552151322,19.147455215,0.000000000,-3.000000000,-4.062500000,-89.310928345,57.037849426,-0.875503778,1.000000000,
3468,8.775943000,8.762814000,-0.078202799,0.124102056,9.874501228,0.942352772,1.056097150,19.524206161,0.000000000,-3.000000000,-4.062500000,-89.309692383,57.133728027,-0.874808788,1.000000000,
3470,8.780998000,8.762814000,-0.515955329,0.042975802,9.574398041,0.480198115,-0.205342352,21.175369263,0.000000000,-3.000000000,-4.062500000,-89.310867310,57.238151550,-0.875187874,1.000000000,
3472,8.786053000,8.783034000,-0.533511817,0.014443316,9.429038048,0.847612679,1.152135372,21.787761688,0.000000000,-3.000000000,-4.062500000,-89.306671143,57.349411011,-0.888036966,1.000000000,
3474,8.791108000,8.783034000,-0.078163192,-0.009210287,9.431370735,-0.805669248,1.073394537,20.962409973,0.000000000,-3.000000000,-4.062500000,-89.307388306,57.454200745,-0.897991419,1.000000000,
3476,8.796163000,8.783034000,0.286856949,0.040911775,9.569581985,-1.392246485,-0.645337105,19.483118057,0.000000000,-3.000000000,-4.062500000,-89.314727783,57.553066254,-0.902993500,1.000000000,
3478,8.801218000,8.783034000,0.060601272,0.195606619,9.829426765,-0.938000977,0.248713553,19.880208969,0.000000000,-3.000000000,-4.062500000,-89.320762634,57.648498535,-0.893513739,1.000000000,
3479,8.803746000,8.783034000,-0.197587982,0.214517027,9.948575974,-0.034557376,0.021168930,20.526735306,0.000000000,-3.000000000,-4.062500000,-89.320907593,57.699817657,-0.888955712,1.000000000,
3481,8.808801000,8.803254000,-0.529738069,0.376424372,10.129678726,0.857123494,0.456971794,22.759897232,0.000000000,-2.937500000,-4.000000000,-89.311195374,57.809082031,-0.885330200,1.000000000,
3483,8.813856000,8.803254000,-0.283736408,0.271695793,9.972404480,0.608207047,0.748720944,21.813133240,0.000000000,-2.937500000,-4.000000000,-89.299835205,57.919853210,-0.897091448,1.000000000,
3485,8.818911000,8.803254000,0.224773020,0.047943898,9.605479240,0.020684235,1.270248890,19.919235229,0.000000000,-2.937500000,-4.000000000,-89.291152954,58.020122528,-0.901888609,1.000000000,
3487,8.823966000,8.803254000,0.530061781,-0.123455584,9.331438065,-0.904716074,0.493523926,20.151340485,0.000000000,-2.937500000,-4.000000000,-89.292816162,58.121677399,-0.897658467,1.000000000,
3489,8.829021000,8.823474000,0.501742899,-0.099573113,9.421788216,-1.303203583,-0.396023005,19.396865845,0.000000000,-2.937500000,-4.062500000,-89.300430298,58.222225189,-0.885178208,1.000000000,
3491,8.834076000,8.823474000,0.249767169,0.126620740,9.805445671,-0.204936951,-0.420832306,18.676336288,0.000000000,-2.937500000,-4.062500000,-89.301994324,58.316215515,-0.873200059,1.000000000,
3493,8.839131000,8.823474000,-0.379346609,0.192876652,10.013066292,-0.577971816,-0.842158198,20.130680084,0.000000000,-2.937500000,-4.062500000,-89.303443909,58.413799286,-0.860716462,1.000000000,
3494,8.841658000,8.823474000,-0.714993775,0.154619306,9.989236832,0.259333253,-1.031129718,20.182956696,0.000000000,-2.937500000,-4.062500000,-89.302543640,58.464199066,-0.853359520,1.000000000,
3496,8.846713000,8.843694000,-1.045886159,0.068681099,9.958257675,-0.168241009,2.553487778,21.604942322,0.000000000,-2.937500000,-4.062500000,-89.303298950,58.571105957,-0.866878033,1.000000000,
3498,8.851768000,8.843694000,-0.737372279,-0.040620033,9.855387688,-1.068924189,0.663084149,21.582881927,0.000000000,-2.875000000,-4.000000000,-89.304275513,58.679809570,-0.882963240,1.000000000,
3500,8.856823000,8.843694000,-0.001229994,-0.007015418,9.929258347,-0.924432278,0.761757970,21.107364655,0.000000000,-2.875000000,-4.000000000,-89.310028076,58.785110474,-0.891165555,1.000000000,
3502,8.861878000,8.843694000,0.524918318,0.152685598,10.162991524,0.041619617,0.254226029,19.250003815,0.000000000,-2.875000000,-4.000000000,-89.311515808,58.883907318,-0.898802638,1.000000000,
3504,8.866933000,8.863914000,0.392531335,0.178928658,10.055756569,1.153581262,-0.594971359,19.916343689,0.000000000,-2.875000000,-4.000000000,-89.307273865,58.981956482,-0.886686146,1.000000000,
3506,8.871988000,8.863914000,-0.066964567,0.026381280,9.731624603,-0.482638836,-1.595283031,20.803808212,0.000000000,-2.937500000,-4.000000000,-89.306686401,59.085376740,-0.870431781,1.000000000,
3508,8.877043000,8.863914000,-0.468125165,-0.085725613,9.557667732,-0.259222150,0.692550480,19.019765854,0.000000000,-2.937500000,-4.000000000,-89.309646606,59.184024811,-0.861080170,1.000000000,
3510,8.882098000,8.863914000,-0.762637556,-0.033479732,9.600712776,-1.144139647,1.085317612,20.041999817,0.000000000,-2.937500000,-4.000000000,-89.317443848,59.282066345,-0.868097305,1.000000000,
3511,8.884626000,8.863914000,-0.867587388,0.026035678,9.693648338,-1.222132921,1.351950049,21.087730408,0.000000000,-2.937500000,-4.000000000,-89.320579529,59.334815979,-0.874836087,1.000000000,
3513,8.889681000,8.884134000,-0.667233288,0.207282111,9.972202301,0.081443250,1.763266325,22.752782822,0.000000000,-2.875000000,-4.000000000,-89.321685791,59.447746277,-0.889392912,1.000000000,
3515,8.894736000,8.884134000,0.122375682,0.326660633,10.184286118,1.295421124,2.115815639,21.620353699,0.000000000,-2.875000000,-4.000000000,-89.316299438,59.558620453,-0.906846225,1.000000000,
3517,8.899791000,8.884134000,0.941328466,0.255355477,10.046376228,0.225192040,-1.212753177,19.823450089,0.000000000,-2.875000000,-4.000000000,-89.308624268,59.660861969,-0.900599182,1.000000000,
3519,8.904846000,8.884134000,0.944522023,0.150621861,9.748506546,0.416418105,-2.001055002,18.263822556,0.000000000,-2.875000000,-4.000000000,-89.304969788,59.753505707,-0.882220387,1.000000000,
3521,8.909901000,8.904354000,-0.022172023,0.121852949,9.593411446,-0.260943025,-0.518347740,19.032377243,0.000000000,-2.875000000,-4.000000000,-89.303398132,59.845352173,-0.866782367,1.000000000,
3523,8.914956000,8.904354000,-1.069982886,0.150140613,9.498093605,-0.166286007,0.747461557,22.085111618,0.000000000,-2.875000000,-4.000000000,-89.299438477,59.952388763,-0.862499297,1.000000000,
3525,8.920011000,8.904354000,-1.129323483,0.161928698,9.600662231,-0.363984078,2.538414240,22.885316849,0.000000000,-2.875000000,-4.000000000,-89.299751282,60.066581726,-0.878034711,1.000000000,
3527,8.925066000,8.904354000,-0.286887944,0.135870382,9.831809998,0.176617429,1.355724692,20.514730453,0.000000000,-2.875000000,-4.000000000,-89.297187805,60.173366547,-0.895223260,1.000000000,
3529,8.930121000,8.924574000,0.396440357,0.078860708,9.889001846,0.318119764,-0.128231093,19.987049103,0.000000000,-2.875000000,-4.000000000,-89.294517517,60.273555756,-0.903143764,1.000000000,
3530,8.932648000,8.924574000,0.446819395,0.038339589,9.898531914,0.104813598,-1.584726214,19.818788528,0.000000000,-2.875000000,-4.000000000,-89.291168213,60.323116302,-0.901214004,1.000000000,
3532,8.937703000,8.924574000,0.096997634,0.085890807,9.912831306,-0.248202801,-0.875142455,20.247379303,0.000000000,-2.875000000,-4.000000000,-89.288795471,60.424011230,-0.884018660,1.000000000,
3534,8.942758000,8.924574000,-0.381779194,0.152394831,10.010581970,0.711066127,1.825096607,20.101882935,0.000000000,-2.875000000,-4.000000000,-89.282043457,60.525100708,-0.882855713,1.000000000,
3536,8.947813000,8.944794000,-0.602941453,0.052246828,9.884285927,0.368089437,0.874820769,21.697217941,0.000000000,-2.875000000,-4.000000000,-89.275718689,60.631248474,-0.893969715,1.000000000,
3538,8.952868000,8.944794000,-0.349540502,-0.050019987,9.774467468,-0.591633022,0.352078021,21.516403198,0.000000000,-2.812500000,-4.000000000,-89.275909424,60.740119934,-0.902083278,1.000000000,
3540,8.957923000,8.944794000,0.070280693,-0.040376544,9.853104591,0.163047135,1.464681387,19.266443253,0.000000000,-2.812500000,-4.000000000,-89.275550842,60.839595795,-0.915830731,1.000000000,
3542,8.962978000,8.944794000,0.165875778,-0.023597503,9.805395126,0.287332058,-1.775400400,20.172094345,0.000000000,-2.812500000,-4.000000000,-89.276802063,60.937221527,-0.912690222,1.000000000,
3543,8.965506000,8.944794000,0.069488510,-0.059339847,9.707693100,-0.124168292,-1.626966357,20.801361084,0.000000000,-2.812500000,-4.000000000,-89.279098511,60.989143372,-0.906567812,1.000000000,
3545,8.970561000,8.965014000,-0.220551878,0.016762014,9.688831329,-0.279891461,0.153287455,19.934783936,0.000000000,-2.812500000,-3.937500000,-89.285255432,61.091556549,-0.901135445,1.000000000,
3547,8.975616000,8.965014000,-0.438217044,0.052401502,9.767470360,0.204321370,2.913156509,20.090278625,0.000000000,-2.812500000,-3.937500000,-89.288467407,61.189369202,-0.913468957,1.000000000,
3549,8.980671000,8.965014000,-0.285397530,-0.026115540,9.667284012,-1.087561488,-0.438316315,22.757766724,0.000000000,-2.812500000,-3.937500000,-89.293319702,61.300277710,-0.920685887,1.000000000,
3551,8.985726000,8.965014000,0.221263111,0.019262534,9.850773811,-1.200804830,0.242176339,20.476659775,0.000000000,-2.812500000,-3.937500000,-89.305122375,61.406986237,-0.919538319,1.000000000,
3553,8.990781000,8.985234000,0.448330551,0.181258574,10.182053566,1.155088544,0.463988751,17.134088516,0.000000000,-2.812500000,-3.937500000,-89.302719116,61.494617462,-0.913861692,1.000000000,
3555,8.995836000,8.985234000,0.006274850,0.214598522,9.979502678,0.004512687,-0.953576505,21.524457932,0.000000000,-2.812500000,-3.937500000,-89.301902771,61.596736908,-0.902407765,1.000000000,
3557,9.000891000,8.985234000,-0.397324294,0.176336557,9.791399956,-0.020979730,0.161001384,21.748767853,0.000000000,-2.812500000,-3.937500000,-89.302040100,61.707794189,-0.888935268,1.000000000,
3559,9.005946000,8.985234000,-0.318416774,0.166847587,9.758038521,0.967150450,2.088183165,18.854400635,0.000000000,-2.812500000,-3.937500000,-89.298210144,61.805896759,-0.890738606,1.000000000,
3561,9.011001000,9.005454000,-0.171103388,0.078943074,9.531404495,-1.190154910,-0.050004870,21.513971329,0.000000000,-2.812500000,-4.000000000,-89.302200317,61.907577515,-0.884614646,1.000000000,
3563,9.016056000,9.005454000,-0.175525427,0.097975306,9.600510597,-0.222775340,-1.647549987,19.968402863,0.000000000,-2.812500000,-4.000000000,-89.307243347,62.011562347,-0.867504716,1.000000000,
3565,9.021111000,9.005454000,-0.282093644,0.274188221,9.834142685,1.008178115,2.572861671,19.842985153,0.000000000,-2.812500000,-4.000000000,-89.302742004,62.109901428,-0.866285443,1.000000000,
3567,9.026166000,9.005454000,-0.287603348,0.228962675,9.700696945,-0.074171714,0.806632996,22.293777466,0.000000000,-2.812500000,-4.000000000,-89.296447754,62.217536926,-0.865742326,1.000000000,
3569,9.031221000,9.025674000,0.018621977,0.114733435,9.605277061,-1.166795135,-1.068826556,21.053039551,0.000000000,-2.750000000,-3.937500000,-89.295814514,62.327163696,-0.856107295,1.000000000,
3570,9.033748000,9.025674000,0.213306829,0.086130075,9.710126877,-0.443713546,-0.016382515,18.653610229,0.000000000,-2.750000000,-3.937500000,-89.295112610,62.373832703,-0.851465642,1.000000000,
3572,9.038803000,9.025674000,0.140344128,0.136028111,9.957954407,-0.179998800,0.828794479,18.039228439,0.000000000,-2.750000000,-3.937500000,-89.292999268,62.463958740,-0.848082602,1.000000000,
3574,9.043858000,9.025674000,-0.465657800,0.176232070,10.012914658,-0.410441130,-1.765246034,21.961616516,0.000000000,-2.750000000,-3.937500000,-89.291114807,62.566600800,-0.830040455,1.000000000,
3575,9.046386000,9.025674000,-0.719552934,0.173739940,10.039127350,0.408865869,-0.039694045,22.844577789,0.000000000,-2.750000000,-3.937500000,-89.288024902,62.623744965,-0.832830906,1.000000000,
3577,9.051441000,9.045894000,-0.694883525,0.187977433,10.170190811,1.790071607,2.067991257,20.337478638,0.062500000,-2.750000000,-3.937500000,-89.279281616,62.729202271,-0.846400499,1.000000000,
3579,9.056496000,9.045894000,-0.260269791,-0.052511074,9.879469872,0.517963231,1.744776368,21.619430542,0.062500000,-2.750000000,-3.937500000,-89.271186829,62.835460663,-0.866878033,1.000000000,
3581,9.061551000,9.045894000,0.277041584,-0.238010004,9.529022217,-1.157643437,-1.732475281,21.995841980,0.062500000,-2.750000000,-3.937500000,-89.275939941,62.944839478,-0.864036322,1.000000000,
3583,9.066606000,9.045894000,0.592066586,-0.097337805,9.729190826,-0.203548998,1.163644910,18.579746246,0.062500000,-2.750000000,-3.937500000,-89.281341553,63.042537689,-0.861911893,1.000000000,
3585,9.071661000,9.066114000,0.274174720,0.021547683,9.877186775,0.818387389,0.408358157,19.158748627,0.000000000,-2.750000000,-3.937500000,-89.278617859,63.135101318,-0.856006503,1.000000000,
3587,9.076716000,9.066114000,-0.368463099,0.016584918,9.810463905,-0.745702565,-3.032106876,21.528930664,0.000000000,-2.750000000,-3.937500000,-89.281753540,63.241901398,-0.835756183,1.000000000,
3589,9.081771000,9.066114000,-0.785079241,0.111813486,9.886617661,1.182940006,2.080135107,19.477977753,0.000000000,-2.750000000,-3.937500000,-89.283004761,63.343475342,-0.835764706,1.000000000,
3591,9.086826000,9.066114000,-0.773774624,0.126198351,9.760321617,0.035115071,2.839680672,21.042415619,0.000000000,-2.750000000,-3.937500000,-89.281036377,63.444000244,-0.856667399,1.000000000,
3593,9.091881000,9.086334000,-0.334198982,0.004959010,9.505242348,-2.177315235,0.447460383,24.145126343,0.000000000,-2.750000000,-3.937500000,-89.289855957,63.563503265,-0.869398594,1.000000000,
3594,9.094408000,9.086334000,0.054454099,-0.011635249,9.581497192,-1.281153560,-0.887955010,21.502618790,0.000000000,-2.750000000,-3.937500000,-89.293586731,63.617202759,-0.870141506,1.000000000,
3596,9.099463000,9.086334000,0.615336359,0.205270171,10.043791771,0.227160111,0.716467321,16.993907928,0.000000000,-2.750000000,-3.937500000,-89.297767639,63.706192017,-0.869202256,1.000000000,
3598,9.104518000,9.086334000,0.230180323,0.355267555,10.172472000,0.186219856,-2.383986950,19.182056427,0.000000000,-2.750000000,-3.937500000,-89.295661926,63.796905518,-0.852085590,1.000000000,
3600,9.109573000,9.106554000,-0.645653784,0.371759444,9.969920158,0.975586534,-0.661621571,22.832630157,0.000000000,-2.750000000,-3.937500000,-89.288238525,63.907032013,-0.836473465,1.000000000,
3602,9.114628000,9.106554000,-0.841248393,0.204922289,9.693547249,1.773812532,3.545115709,21.400001526,0.000000000,-2.687500000,-3.937500000,-89.275810242,64.015869141,-0.854635239,1.000000000,
3604,9.119683000,9.106554000,-0.285382330,-0.166553780,9.221719742,-1.259229302,0.613944352,20.541788101,0.000000000,-2.687500000,-3.937500000,-89.276245117,64.121025085,-0.871816754,1.000000000,
3606,9.124738000,9.106554000,0.306415826,-0.271232784,9.193124771,-2.374241114,-1.487799287,20.012199402,0.000000000,-2.687500000,-3.937500000,-89.290359497,64.222320557,-0.868274927,1.000000000,
3608,9.129793000,9.126774000,0.209343091,0.119369142,9.860354424,0.050440542,-0.250229895,17.368055344,0.000000000,-2.687500000,-3.937500000,-89.298675537,64.311958313,-0.862448096,1.000000000,
3610,9.134848000,9.126774000,-0.414430618,0.433733821,10.186718941,0.590844810,2.631414652,22.732570648,0.000000000,-2.625000000,-3.937500000,-89.295280457,64.416381836,-0.864932895,1.000000000,
3612,9.139903000,9.126774000,-0.444136322,0.316994578,10.010379791,0.300202996,-0.642878652,23.967357635,0.000000000,-2.625000000,-3.937500000,-89.287643433,64.536659241,-0.870426655,1.000000000,
3613,9.142431000,9.126774000,-0.097266123,0.152572930,9.884285927,0.492829263,1.086266398,22.145904541,0.000000000,-2.625000000,-3.937500000,-89.283744812,64.592094421,-0.875606298,1.000000000,
3615,9.147486000,9.126774000,0.721719444,-0.090261705,9.765137672,-0.127199471,0.276913494,17.436054230,0.000000000,-2.625000000,-3.937500000,-89.279197693,64.684722900,-0.873932660,1.000000000,
3617,9.152541000,9.146994000,0.567802966,-0.164148703,9.667386055,-2.294567823,-1.383175969,19.061017990,0.000000000,-2.625000000,-3.875000000,-89.286796570,64.774650574,-0.857244611,1.000000000,
3619,9.157596000,9.146994000,-0.369552076,0.152396813,10.058191299,-0.282397449,-1.523198724,19.940801620,0.000000000,-2.625000000,-3.875000000,-89.291175842,64.873962402,-0.839414179,1.000000000,
3621,9.162651000,9.146994000,-0.949754775,0.459527731,10.460911751,2.206711531,4.802576065,22.546285629,0.000000000,-2.625000000,-3.875000000,-89.281013489,64.982711792,-0.855350733,1.000000000,
3623,9.167706000,9.146994000,-0.536467075,0.276228845,10.215467453,2.131838560,-0.529002547,21.905755997,0.000000000,-2.625000000,-3.875000000,-89.267898560,65.094520569,-0.866155624,1.000000000,
3625,9.172761000,9.167214000,0.224728987,-0.099733733,9.609942436,0.670256019,-0.898994088,19.527725220,0.000000000,-2.625000000,-3.937500000,-89.260658264,65.197509766,-0.869576275,1.000000000,
3627,9.177816000,9.167214000,0.407690585,-0.216326520,9.316837311,-0.186713144,-0.189743936,17.578416824,0.000000000,-2.625000000,-3.937500000,-89.262718201,65.285507202,-0.854049444,1.000000000,
3629,9.182871000,9.167214000,-0.253917426,-0.044926174,9.283576965,-1.051207185,-0.193731830,20.558921814,0.000000000,-2.625000000,-3.937500000,-89.268890381,65.384819031,-0.851875484,1.000000000,
3630,9.185398000,9.167214000,-0.557679832,0.033580445,9.395576477,-0.716439724,-1.041074514,21.229524612,0.000000000,-2.625000000,-3.937500000,-89.272758484,65.437820435,-0.847703516,1.000000000,
3632,9.190453000,9.187434000,-0.555990696,0.245601326,9.710126877,1.102077484,3.497452021,22.890842438,0.000000000,-2.625000000,-3.937500000,-89.271179199,65.553329468,-0.867294729,1.000000000,
3634,9.195508000,9.187434000,-0.021117916,0.157600135,9.798146248,-0.118065000,-1.350795746,18.573341370,0.000000000,-2.625000000,-3.875000000,-89.270721436,65.649986267,-0.870773375,1.000000000,
3636,9.200563000,9.187434000,0.191472620,0.033769194,9.667082787,-1.813316822,-1.387746811,19.385526657,0.000000000,-2.625000000,-3.875000000,-89.279182434,65.745765686,-0.870049298,1.000000000,
3638,9.205618000,9.187434000,-0.164637491,0.152602375,9.836576462,-0.815162361,1.426439643,20.015254974,0.000000000,-2.625000000,-3.875000000,-89.290710449,65.842475891,-0.867028296,1.000000000,
3640,9.210678000,9.207659000,-0.534352005,0.288182318,10.163041115,0.263109177,0.799391985,20.298072815,0.000000000,-2.625000000,-3.875000000,-89.292282104,65.944946289,-0.880690277,1.000000000,
3642,9.215738000,9.207659000,-0.395222098,0.302549154,10.189203262,0.854209900,1.828715324,22.303197861,0.000000000,-2.562500000,-3.875000000,-89.286811829,66.055603027,-0.892624021,1.000000000,
3643,9.218268000,9.207659000,-0.150695607,0.271633148,10.203501701,0.661512315,0.196261004,21.299104691,0.000000000,-2.562500000,-3.875000000,-89.283226013,66.108879089,-0.896273553,1.000000000,
3645,9.223328000,9.207659000,0.221502662,0.100230485,9.889051437,1.829311013,-0.272019476,18.756719589,0.000000000,-2.562500000,-3.875000000,-89.269401550,66.203811646,-0.895484567,1.000000000,
3647,9.228388000,9.207659000,0.237936720,-0.142664671,9.379096985,-0.243279576,-0.103333570,20.585647583,0.000000000,-2.562500000,-3.875000000,-89.265220642,66.305122375,-0.887946486,1.000000000,
3649,9.233448000,9.227899000,0.107141376,-0.245062307,9.124069214,-1.643805504,1.232223749,20.820486069,0.000000000,-2.562500000,-3.937500000,-89.273918152,66.411003113,-0.882061541,1.000000000,
3651,9.238508000,9.227899000,0.146970838,-0.106919579,9.400493622,-1.338626385,0.730010927,18.698890686,0.000000000,-2.562500000,-3.937500000,-89.283027649,66.505722046,-0.880251348,1.000000000,
3653,9.243568000,9.227899000,-0.028196018,0.040679205,9.812594414,-1.659169793,-0.864820004,19.719503403,0.000000000,-2.562500000,-3.937500000,-89.293167114,66.601539612,-0.871926129,1.000000000,
3655,9.248628000,9.227899000,-0.438063532,0.211944848,10.248677254,0.106123313,-1.026442051,19.886137009,0.000000000,-2.562500000,-3.937500000,-89.297325134,66.699844360,-0.857381284,1.000000000,
3657,9.253688000,9.248139000,-0.731446326,0.307058245,10.508419037,0.600404739,2.374902964,20.883888245,0.000000000,-2.625000000,-3.875000000,-89.298316956,66.804000854,-0.869292736,1.000000000,
3659,9.258748000,9.248139000,-0.550190270,0.207079023,10.343995094,0.546621203,1.746131301,21.529949188,0.000000000,-2.625000000,-3.875000000,-89.293716431,66.911659241,-0.884807646,1.000000000,
3660,9.261278000,9.248139000,-0.301740825,0.142879516,10.196249962,0.099284969,0.844108105,21.757671356,0.000000000,-2.625000000,-3.875000000,-89.293067932,66.966087341,-0.890304863,1.000000000,
3662,9.266338000,9.248139000,0.185776502,0.031144908,9.938891411,0.482618719,-1.542101502,18.835247040,0.000000000,-2.625000000,-3.875000000,-89.291542053,67.064865112,-0.891577125,1.000000000,
3664,9.271398000,9.268379000,0.141627401,0.148072943,9.750638008,1.619736075,0.319757074,18.676881790,0.000000000,-2.625000000,-3.875000000,-89.290008545,67.157646179,-0.893124402,1.000000000,
3666,9.276458000,9.268379000,-0.404085696,0.188521519,9.429089546,0.754418015,0.534415901,21.541475296,0.000000000,-2.500000000,-3.875000000,-89.286834717,67.262245178,-0.897769451,1.000000000,
3668,9.281518000,9.268379000,-0.676330805,0.097975485,9.162197113,0.338778496,-0.058764882,21.892433167,0.000000000,-2.500000000,-3.875000000,-89.283157349,67.372451782,-0.904972851,1.000000000,
3670,9.286578000,9.268379000,-0.460549176,-0.021148674,9.181210518,-1.527119040,1.670658469,20.498703003,0.000000000,-2.500000000,-3.875000000,-89.286872864,67.476226807,-0.919663012,1.000000000,
3672,9.291638000,9.288619000,-0.185254842,0.009718041,9.569633484,-1.900718689,0.071518935,19.347278595,0.000000000,-2.500000000,-3.875000000,-89.295021057,67.573493958,-0.927810788,1.000000000,
3674,9.296698000,9.288619000,-0.201381788,0.321725398,10.136778831,-0.003755577,0.424343586,20.562015533,0.000000000,-2.500000000,-3.875000000,-89.298019409,67.676292419,-0.938689232,1.000000000,
3675,9.299228000,9.288619000,-0.235871479,0.459843904,10.408434868,1.072175264,-0.448800206,20.662807465,0.000000000,-2.500000000,-3.875000000,-89.293663025,67.727989197,-0.940934956,1.000000000,
3677,9.304288000,9.288619000,-0.130178273,0.540947497,10.456044197,2.209827423,2.000020981,23.250465393,0.000000000,-2.500000000,-3.875000000,-89.279563904,67.841926575,-0.954187334,1.000000000,
3679,9.309348000,9.288619000,0.332196146,0.198052302,9.979452133,1.936090350,-1.007251263,20.471614838,0.000000000,-2.500000000,-3.875000000,-89.260528564,67.947479248,-0.951772571,1.000000000,
3681,9.314408000,9.308859000,0.627926767,-0.209163949,9.262231827,-0.083082326,-1.076848149,18.964002609,0.000000000,-2.500000000,-3.812500000,-89.255043030,68.046546936,-0.941517353,1.000000000,
3683,9.319468000,9.308859000,0.235802114,-0.314053923,8.985806465,-1.608694434,0.358658135,18.665321350,0.000000000,-2.500000000,-3.812500000,-89.261177063,68.137306213,-0.927038848,1.000000000,
3685,9.324528000,9.308859000,-0.481374860,-0.107050002,9.321754456,-2.424451828,0.056279026,20.689002991,0.000000000,-2.500000000,-3.812500000,-89.273094177,68.238761902,-0.922443211,1.000000000,
3686,9.327058000,9.308859000,-0.683560133,0.040537946,9.605326653,-1.484537959,1.065057397,21.769460678,0.000000000,-2.500000000,-3.812500000,-89.278343201,68.293174744,-0.922147810,1.000000000,
3688,9.332118000,9.329099000,-0.497876495,0.247652620,10.265407562,0.125398800,1.594784379,21.292060852,0.000000000,-2.500000000,-3.812500000,-89.284141541,68.404586792,-0.935423970,1.000000000,
3689,9.334648000,9.329099000,-0.192377388,0.278561682,10.470494270,1.418529153,-0.839704335,19.554384232,0.000000000,-2.500000000,-3.812500000,-89.282249451,68.453445435,-0.935367644,1.000000000,
3691,9.339708000,9.329099000,0.233187556,0.085697502,10.279857635,0.115484014,-0.259755164,20.611232758,0.000000000,-2.500000000,-3.812500000,-89.282936096,68.556510925,-0.932882845,1.000000000,
3693,9.344768000,9.329099000,0.152300179,-0.014202520,9.950857162,-0.111254402,-0.954361975,19.114658356,0.000000000,-2.500000000,-3.812500000,-89.286170959,68.652893066,-0.916262805,1.000000000,
3694,9.347298000,9.329099000,-0.095019549,0.007218830,9.862687111,-0.361339539,2.476479530,20.384710312,0.000000000,-2.500000000,-3.812500000,-89.288063049,68.703926086,-0.918469310,1.000000000,
3696,9.352358000,9.349339000,-0.450594187,0.035798948,9.698262215,0.175577164,-0.104753517,20.642787933,0.000000000,-2.500000000,-3.812500000,-89.290206909,68.806755066,-0.917169631,1.000000000,
3698,9.357418000,9.349339000,-0.450979263,0.007204707,9.624442101,-0.977177680,0.722676933,21.732109070,-0.062500000,-2.500000000,-3.875000000,-89.298469543,68.916580200,-0.921474934,1.000000000,
3700,9.362478000,9.349339000,-0.284349442,0.026200423,9.860354424,0.629725516,-0.762255430,18.488447189,-0.062500000,-2.500000000,-3.875000000,-89.301048279,69.012649536,-0.919973731,1.000000000,
3702,9.367538000,9.349339000,-0.432630509,0.088081256,9.915213585,0.228960618,0.368979633,19.964822769,-0.062500000,-2.500000000,-3.875000000,-89.303482056,69.110534668,-0.927978098,1.000000000,
3704,9.372598000,9.369579000,-0.560403526,0.152495191,9.774619102,-0.721317530,1.449202538,23.169414520,-0.062500000,-2.500000000,-3.875000000,-89.305778503,69.221740723,-0.935524821,1.000000000,
3706,9.377658000,9.369579000,-0.147976696,0.233688712,9.815129280,0.122396328,1.038453937,21.075935364,0.000000000,-2.500000000,-3.812500000,-89.306694031,69.331924438,-0.950679600,1.000000000,
3708,9.382718000,9.369579000,0.345613420,0.164733484,9.796065331,0.226961032,1.086576819,19.677421570,0.000000000,-2.500000000,-3.812500000,-89.306251526,69.429481506,-0.958315134,1.000000000,
3709,9.385248000,9.369579000,0.448127061,0.098044090,9.693648338,0.339418381,-2.233161211,19.481008530,0.000000000,-2.500000000,-3.812500000,-89.305580139,69.478118896,-0.948102534,1.000000000,
3711,9.390308000,9.369579000,0.138509452,0.102750987,9.607861519,-0.512904882,-1.408185720,20.717422485,0.000000000,-2.500000000,-3.812500000,-89.306999207,69.577964783,-0.924280822,1.000000000,
3713,9.395368000,9.389819000,-0.390297413,0.224117219,9.767419815,0.226968393,1.335365653,19.651165009,-0.062500000,-2.437500000,-3.812500000,-89.306556702,69.679092407,-0.922658443,1.000000000,
3715,9.400428000,9.389819000,-0.584406435,0.197817504,9.769802094,-0.421445340,3.779860973,22.932954788,-0.062500000,-2.437500000,-3.812500000,-89.308387756,69.787467957,-0.935316384,1.000000000,
3717,9.405488000,9.389819000,-0.099945426,0.128735259,9.829528809,-0.811206877,-2.807668209,20.967063904,-0.062500000,-2.437500000,-3.812500000,-89.312568665,69.897621155,-0.936872184,1.000000000,
3719,9.410548000,9.389819000,0.380634516,0.228912681,10.065441132,1.446711421,1.898958921,18.997894287,-0.062500000,-2.437500000,-3.812500000,-89.308502197,69.995597839,-0.930036008,1.000000000,
3721,9.415608000,9.410059000,0.198088437,0.238477439,9.993851662,1.085858822,-1.549758792,19.308048248,0.000000000,-2.375000000,-3.812500000,-89.299171448,70.088630676,-0.915178418,1.000000000,
3723,9.420668000,9.410059000,-0.307685584,0.090739362,9.529173851,0.299261540,0.539988577,23.686613083,0.000000000,-2.375000000,-3.812500000,-89.293678284,70.204017639,-0.907378972,1.000000000,
3725,9.425728000,9.410059000,-0.272235006,-0.049844570,9.438570023,-1.761509299,1.821250916,20.918725967,0.000000000,-2.375000000,-3.812500000,-89.297912598,70.311935425,-0.903256536,1.000000000,
3727,9.430788000,9.410059000,0.031178253,-0.114270791,9.707843781,-0.929099560,0.988148868,17.837310791,0.000000000,-2.375000000,-3.812500000,-89.303642273,70.404548645,-0.903949797,1.000000000,
3728,9.433318000,9.430299000,0.012683954,-0.040437665,9.834142685,-1.253163576,-2.095403433,18.717885971,0.000000000,-2.375000000,-3.812500000,-89.307464600,70.451248169,-0.894304454,1.000000000,
3730,9.438378000,9.430299000,-0.496201247,0.166567340,10.122632027,0.382292628,-2.963500261,20.779800415,0.000000000,-2.375000000,-3.812500000,-89.309844971,70.553405762,-0.871977329,1.000000000,
3732,9.443438000,9.430299000,-1.013398647,0.338001132,10.208418846,2.312775612,2.205502510,21.645977020,0.000000000,-2.375000000,-3.812500000,-89.298484802,70.659286499,-0.881788313,1.000000000,
3734,9.448498000,9.430299000,-0.809671819,0.057033770,9.769853592,0.000932848,3.556678057,23.314367294,0.000000000,-2.375000000,-3.812500000,-89.293174744,70.774192810,-0.907402933,1.000000000,
3736,9.453558000,9.450539000,0.151943102,-0.302453488,9.433855057,-2.416254759,-0.139776409,21.459938049,0.000000000,-2.375000000,-3.812500000,-89.302032471,70.885787964,-0.916927159,1.000000000,
3738,9.458618000,9.450539000,0.841954827,-0.209528804,9.836727142,-0.737615943,-1.386532187,16.493362427,-0.062500000,-2.375000000,-3.875000000,-89.313903809,70.973915100,-0.907746255,1.000000000,
3740,9.463678000,9.450539000,0.281436384,0.197695196,10.334767342,0.412409693,-2.338526964,17.931747437,-0.062500000,-2.375000000,-3.875000000,-89.314979553,71.058937073,-0.887242913,1.000000000,
3742,9.468738000,9.450539000,-0.859721899,0.521667540,10.267892838,2.390019655,-0.085049666,23.606842041,-0.062500000,-2.375000000,-3.875000000,-89.304420471,71.170288086,-0.874807060,1.000000000,
3743,9.471268000,9.450539000,-1.162738442,0.462064415,10.072488785,2.156173706,1.339998126,23.896129608,-0.062500000,-2.375000000,-3.875000000,-89.297508240,71.230079651,-0.881245255,1.000000000,
3745,9.476328000,9.470779000,-0.746959686,0.088297233,9.400443077,1.609960079,3.030069590,22.911256790,-0.062500000,-2.312500000,-3.812500000,-89.283966064,71.346496582,-0.902301848,1.000000000,
3747,9.481388000,9.470779000,0.407970935,-0.380710661,8.914319038,-3.880299568,-0.448045254,21.582559586,-0.062500000,-2.312500000,-3.812500000,-89.295478821,71.456199646,-0.910955131,1.000000000,
3749,9.486448000,9.470779000,1.031085968,-0.249634787,9.359983444,-2.825855970,-1.199790001,16.894180298,-0.062500000,-2.312500000,-3.812500000,-89.313713074,71.546630859,-0.897737026,1.000000000,
3751,9.491508000,9.470779000,0.491915464,0.383869767,10.263126373,-0.055025682,0.635673761,18.541767120,-0.062500000,-2.312500000,-3.812500000,-89.319473267,71.633811951,-0.888972819,1.000000000,
3753,9.496568000,9.491019000,-0.455510974,0.750560582,10.565711021,1.878252149,-0.452875495,23.336578369,-0.062500000,-2.312500000,-3.812500000,-89.308052063,71.745399475,-0.879305243,1.000000000,
3755,9.501628000,9.491019000,-0.592354655,0.543363631,10.074821472,3.636897802,0.201760456,22.770860672,-0.062500000,-2.312500000,-3.812500000,-89.285629272,71.863372803,-0.874182045,1.000000000,
3757,9.506688000,9.491019000,-0.028782254,-0.094924308,9.255031586,0.218364432,0.474504352,18.984315872,-0.062500000,-2.312500000,-3.812500000,-89.273590088,71.961959839,-0.871661365,1.000000000,
3759,9.511748000,9.491019000,0.114810549,-0.516614318,8.771289825,-4.063927174,-1.621156216,18.591114044,-0.062500000,-2.312500000,-3.812500000,-89.285675049,72.055435181,-0.859263182,1.000000000,
3761,9.516808000,9.511259000,-0.329802513,-0.104675405,9.431370735,-3.117859364,0.562307477,20.075037003,-0.062500000,-2.312500000,-3.812500000,-89.308952332,72.152862549,-0.851706445,1.000000000,
3762,9.519338000,9.511259000,-0.520546138,0.226306543,10.060472488,-0.628647327,3.688019514,20.373573303,-0.062500000,-2.312500000,-3.812500000,-89.312629700,72.203819275,-0.859601319,1.000000000,
3764,9.524398000,9.511259000,-0.427855074,0.736146569,10.808722496,3.404288292,1.843079805,23.152458191,-0.062500000,-2.312500000,-3.812500000,-89.299415588,72.316642761,-0.878202021,1.000000000,
3766,9.529458000,9.511259000,0.169341236,0.407538861,10.446512222,2.392848969,-4.034645081,21.676069260,-0.062500000,-2.312500000,-3.812500000,-89.278488159,72.427688599,-0.862926245,1.000000000,
3768,9.534518000,9.531499000,0.474300921,-0.152208090,9.664900780,1.481296182,-2.550448895,17.327640533,-0.062500000,-2.312500000,-3.812500000,-89.263237000,72.520019531,-0.840638578,1.000000000,
3770,9.539578000,9.531499000,-0.259762287,-0.478811413,9.083509445,-2.148471355,0.672920942,18.464410782,-0.062500000,-2.250000000,-3.812500000,-89.270553589,72.607322693,-0.831387877,1.000000000,
3772,9.544638000,9.531499000,-1.087579012,-0.276596874,9.343251228,-4.105338097,2.584019184,22.459966660,-0.062500000,-2.250000000,-3.812500000,-89.293975830,72.716209412,-0.842342973,1.000000000,
3774,9.549698000,9.531499000,-0.732387543,0.340395629,10.320469856,1.519590378,4.306163311,22.632341385,-0.062500000,-2.250000000,-3.812500000,-89.295555115,72.831054688,-0.869666755,1.000000000,
3776,9.554758000,9.551739000,0.389022291,0.486004174,10.732721329,3.341021299,-1.850300789,20.541400909,-0.062500000,-2.250000000,-3.812500000,-89.281082153,72.935340881,-0.875443995,1.000000000,
3777,9.557288000,9.551739000,0.778080404,0.357663184,10.446562767,3.424159050,-3.988839149,20.272493362,-0.062500000,-2.250000000,-3.812500000,-89.271720886,72.985954285,-0.860716462,1.000000000,
3779,9.562348000,9.551739000,0.631820381,-0.123491175,9.541037560,0.735220313,-4.540453434,17.720149994,-0.062500000,-2.250000000,-3.812500000,-89.263145447,73.076614380,-0.825351059,1.000000000,
3781,9.567408000,9.551739000,-0.413837075,-0.328650713,8.947831154,-2.193654776,3.268582106,19.423999786,-0.062500000,-2.250000000,-3.812500000,-89.271286011,73.170867920,-0.823807240,1.000000000,
3783,9.572468000,9.551739000,-0.973456144,-0.083396688,9.167063713,-3.524356842,5.770884514,23.186454773,-0.062500000,-2.250000000,-3.812500000,-89.293510437,73.281684875,-0.851025045,1.000000000,
3785,9.577528000,9.571979000,-0.191787541,0.347857893,10.129831314,-0.646790564,1.248765469,21.767612457,-0.062500000,-2.250000000,-3.812500000,-89.304077148,73.395469666,-0.869272232,1.000000000,
